=~=~=~=~=~=~=~=~=~=~=~= PuTTY log 2026.08.22 14:45:08 =~=~=~=~=~=~=~=~=~=~=~=
imu_seq,baro_seq,timestamp_us,roll_deg,pitch_deg,yaw_deg,heading_deg,altitude_m,raw_altitude_m,climb_rate_mps,pressure_pa,temperature_c,comp_altitude_m,comp_climb_rate_mps,comp_accel_up_mss,accel_x_mss,accel_y_mss,accel_z_mss,gyro_x_dps,gyro_y_dps,gyro_z_dps,mag_x_ut,mag_y_ut,mag_z_ut,linacc_x_mss,linacc_y_mss,linacc_z_mss,grav_x_mss,grav_y_mss,grav_z_mss,calib_sys,calib_gyro,calib_accel,calib_mag,imu_valid,baro_valid
[IMU] BNO055 axis_map=0x24 sign_x=0 sign_y=0 sign_z=0
[SETUP] Baro PROM: C1=39189 C2=35799 C3=24633 C4=24872 C5=35093 C6=27857
[SETUP] Airspeed init failed -- check wiring/I2C address
[SETUP] SD card init failed -- check the card is inserted
4,1,10730652,4.375,-5.375,29.438,29.438,0.061,0.339,0.000,99977.33,35.74,-0.016,-0.722,-19.5449,0.0000,0.2600,9.7900,0.0625,-0.1250,0.0625,20.0625,-32.5625,26.7500,-0.0500,0.0500,-0.0100,0.0600,0.1900,9.8000,3,3,3,3,1,1
16,5,10850068,4.375,-5.375,29.438,29.438,-0.184,-0.691,0.000,99989.54,35.91,-0.263,-3.057,-19.5352,0.0100,0.2500,9.7800,-0.0625,0.1250,-0.0625,20.5000,-32.8750,27.1875,-0.0400,0.0300,0.0000,0.0600,0.1900,9.8000,3,3,3,3,1,1
28,9,10970583,4.375,-5.375,29.438,29.438,-0.480,-0.976,-2.341,99992.91,36.03,-0.814,-5.418,-19.5327,0.0000,0.2300,9.7800,0.0000,-0.0625,0.0000,19.7500,-33.6875,25.8750,-0.0500,0.0400,0.0000,0.0600,0.1900,9.8000,3,3,3,3,1,1
6169,2051,72922832,4.375,-5.375,26.625,26.625,-0.566,-0.233,0.999,99984.11,36.16,-97.161,-97.531,-19.5243,0.0000,0.2500,9.7700,-0.0625,-0.1250,0.1875,16.3750,-32.8750,21.3750,-0.0500,0.0400,-0.0300,0.0600,0.1900,9.8000,3,3,3,0,1,1
6181,2055,73042902,4.375,-5.375,26.625,26.625,-0.561,-0.917,0.229,99992.22,36.15,-97.158,-97.529,-19.5541,0.0000,0.2500,9.8000,0.0000,0.0625,-0.0625,16.7500,-33.2500,19.3750,-0.0500,0.0400,0.0000,0.0600,0.1900,9.8000,3,3,3,0,1,1
6193,2059,73162950,4.375,-5.375,26.625,26.625,-0.491,-0.494,0.773,99987.20,36.16,-97.161,-97.530,-19.5526,0.0000,0.2300,9.8000,-0.0625,-0.0625,0.0000,16.3750,-34.0625,19.7500,-0.0500,0.0200,-0.0300,0.0600,0.1900,9.8000,3,3,3,0,1,1
6205,2063,73283139,4.375,-5.375,26.625,26.625,-0.348,-0.081,0.559,99982.30,36.16,-97.144,-97.526,-19.5436,0.0100,0.2300,9.7900,0.0000,-0.0625,0.0625,16.7500,-33.6875,19.7500,-0.0300,0.0400,0.0000,0.0600,0.1900,9.8000,3,3,3,0,1,1
6217,2067,73403049,4.375,-5.375,26.625,26.625,-0.300,-1.234,1.291,99995.98,36.17,-97.090,-97.515,-19.5717,0.0000,0.2200,9.8200,0.0000,0.1875,-0.0625,16.7500,-34.0625,20.5625,-0.0800,0.0500,0.0200,0.0600,0.1900,9.8000,3,3,3,0,1,1
6229,2071,73523570,4.375,-5.375,26.625,26.625,-0.523,-1.161,-2.550,99995.12,36.17,-97.144,-97.526,-19.5335,0.0000,0.2400,9.7800,0.0000,-0.1250,0.0000,16.7500,-33.2500,20.5625,-0.0600,0.0300,-0.0300,0.0600,0.1900,9.8000,3,3,3,0,1,1
6241,2075,73642907,4.375,-5.375,26.625,26.625,-0.047,-0.542,4.094,99987.77,36.18,-97.040,-97.505,-19.5327,0.0000,0.2300,9.7800,0.0000,-0.0625,-0.0625,16.0000,-32.8750,19.7500,-0.0700,0.0400,0.0100,0.0600,0.1900,9.8000,3,3,3,0,1,1
6253,2079,73763712,4.375,-5.375,26.625,26.625,-0.330,-0.797,-1.914,99990.80,36.18,-97.074,-97.512,-19.5534,0.0000,0.2400,9.8000,-0.0625,0.0625,0.0625,16.3750,-33.2500,20.5625,-0.0400,0.0500,-0.0100,0.0600,0.1900,9.8000,3,3,3,0,1,1
6262,2082,73863303,4.375,-5.375,26.625,26.625,-0.183,0.378,-0.876,99976.88,36.16,-97.067,-97.511,-19.5127,-0.0100,0.2400,9.7600,0.0625,0.1250,0.0625,16.0000,-32.8750,20.1875,-0.0700,0.0300,-0.0400,0.0600,0.1900,9.8000,3,3,3,0,1,1
6274,2086,73984013,4.375,-5.375,26.625,26.625,-0.043,1.418,1.261,99964.55,36.16,-97.049,-97.506,-19.5221,0.0000,0.2200,9.7700,0.0625,0.0000,0.0625,16.3750,-33.2500,21.0000,-0.0500,0.0300,0.0000,0.0600,0.1900,9.8000,3,3,3,0,1,1
6286,2090,74103828,4.375,-5.375,26.625,26.625,0.146,0.907,1.288,99970.60,36.17,-96.959,-97.489,-19.5444,0.0100,0.2400,9.7900,0.0000,0.0625,-0.0625,16.7500,-33.6875,21.0000,-0.0700,0.0400,0.0000,0.0600,0.1900,9.8000,3,3,3,0,1,1
6298,2094,74223949,4.375,-5.375,26.625,26.625,0.121,0.816,0.113,99971.68,36.17,-96.924,-97.484,-19.5511,0.0000,0.2100,9.8000,-0.0625,-0.0625,-0.0625,15.2500,-32.5625,21.0000,-0.0700,0.0200,0.0000,0.0600,0.1900,9.8000,3,3,3,0,1,1
6310,2098,74343894,4.375,-5.375,26.625,26.625,-0.278,-0.580,-1.754,99988.23,36.18,-96.949,-97.489,-19.5434,0.0000,0.2400,9.7900,0.0000,-0.0625,-0.0625,15.2500,-33.6875,21.7500,-0.0800,0.0500,0.0100,0.0600,0.1900,9.8000,3,3,3,0,1,1
6322,2102,74464451,4.375,-5.375,26.625,26.625,-0.274,-0.743,-0.973,99990.16,36.18,-96.950,-97.490,-19.5526,0.0000,0.2300,9.8000,0.0000,0.1875,0.0000,16.0000,-33.2500,21.3750,-0.0500,0.0500,0.0000,0.0600,0.1900,9.8000,3,3,3,0,1,1
6332,2105,74564594,4.375,-5.375,26.625,26.625,-0.320,-0.781,0.789,99990.61,36.17,-96.964,-97.493,-19.5344,0.0100,0.2400,9.7800,-0.1250,0.0625,0.0000,16.0000,-34.0625,20.1875,-0.0600,0.0400,-0.0100,0.0600,0.1900,9.8000,3,3,3,0,1,1
6343,2109,74674564,4.375,-5.375,26.625,26.625,-0.359,0.552,-1.926,99974.80,36.18,-97.025,-97.506,-19.5541,0.0000,0.2500,9.8000,0.0000,0.0000,0.1250,16.0000,-32.8750,19.7500,-0.0700,0.0400,-0.0300,0.0600,0.1900,9.8000,3,3,3,0,1,1
6355,2113,74793967,4.375,-5.375,26.625,26.625,-0.528,-0.684,-0.059,99989.45,36.17,-97.038,-97.509,-19.5360,0.0100,0.2600,9.7800,0.0625,0.0000,0.0000,16.3750,-32.8750,20.5625,-0.0800,0.0300,-0.0200,0.0600,0.1900,9.8000,3,3,3,0,1,1
6364,2116,74893863,4.375,-5.375,26.625,26.625,-0.473,-0.569,0.241,99988.09,36.16,-97.030,-97.507,-19.5444,0.0100,0.2400,9.7900,0.0000,0.0625,0.0000,15.6875,-34.0625,19.7500,-0.0500,0.0300,-0.0100,0.0600,0.1900,9.8000,3,3,3,0,1,1
6376,2120,75014684,4.375,-5.375,26.625,26.625,-0.403,0.562,-0.458,99974.69,36.17,-97.068,-97.515,-19.5507,-0.0200,0.2300,9.8000,0.0000,-0.1250,0.0000,16.3750,-33.6875,21.0000,-0.0600,0.0200,-0.0100,0.0600,0.1900,9.8000,3,3,3,0,1,1
6388,2124,75134990,4.375,-5.375,26.625,26.625,-0.144,-0.045,3.513,99981.88,36.17,-96.980,-97.497,-19.5222,0.0100,0.2100,9.7700,0.0000,-0.0625,-0.0625,16.0000,-33.6875,21.3750,-0.0500,0.0500,-0.0100,0.0600,0.1900,9.8000,3,3,3,0,1,1
6400,2128,75254429,4.375,-5.375,26.625,26.625,-0.252,-0.921,0.392,99992.27,36.18,-96.959,-97.494,-19.5541,0.0000,0.2500,9.8000,0.0625,0.0000,0.0625,16.3750,-33.2500,19.3750,-0.0600,0.0500,0.0300,0.0600,0.1900,9.8000,3,3,3,0,1,1
6412,2132,75374972,4.375,-5.375,26.625,26.625,-0.572,-1.331,-2.241,99997.12,36.18,-97.026,-97.508,-19.5535,0.0100,0.2300,9.8000,-0.0625,-0.0625,-0.0625,16.0000,-34.0625,21.0000,-0.0600,0.0600,-0.0100,0.0600,0.1900,9.8000,3,3,3,0,1,1
6424,2136,75494924,4.375,-5.375,26.625,26.625,-0.517,-1.303,0.777,99996.80,36.18,-97.037,-97.510,-19.5554,0.0300,0.2300,9.8000,0.0000,0.1875,0.0625,16.7500,-33.6875,19.0000,-0.0500,0.0300,0.0000,0.0600,0.1900,9.8000,3,3,3,0,1,1
6436,2140,75615470,4.375,-5.375,26.625,26.625,-0.538,-0.763,-0.634,99990.39,36.17,-97.079,-97.519,-19.5633,0.0000,0.2400,9.8100,0.0625,0.0625,-0.0625,16.0000,-33.2500,19.7500,-0.0600,0.0600,0.0000,0.0600,0.1900,9.8000,3,3,3,0,1,1
6446,2143,75715558,4.375,-5.375,26.625,26.625,-0.467,0.458,-0.845,99975.91,36.17,-97.111,-97.525,-19.5312,0.0000,0.2100,9.7800,0.0000,-0.1250,-0.1250,15.2500,-33.6875,20.1875,-0.0400,0.0300,-0.0100,0.0600,0.1900,9.8000,3,3,3,0,1,1
6457,2147,75825584,4.375,-5.375,26.625,26.625,-0.378,0.372,1.466,99976.95,36.17,-97.102,-97.523,-19.5329,0.0100,0.2200,9.7800,0.0000,-0.1250,0.0000,16.0000,-34.0625,20.1875,-0.0600,0.0400,0.0000,0.0600,0.1900,9.8000,3,3,3,0,1,1
6466,2150,75925684,4.375,-5.375,26.625,26.625,-0.528,-1.272,-0.464,99996.42,36.16,-97.085,-97.520,-19.5534,0.0000,0.2400,9.8000,0.0000,-0.1875,-0.1250,16.0000,-33.2500,21.0000,-0.0500,0.0500,0.0000,0.0600,0.1900,9.8000,3,3,3,0,1,1
6478,2154,76044897,4.375,-5.375,26.625,26.625,-0.342,0.023,0.190,99981.08,36.17,-97.097,-97.523,-19.5640,0.0000,0.2500,9.8100,-0.0625,-0.0625,0.0625,16.3750,-32.8750,20.1875,-0.0600,0.0500,-0.0100,0.0600,0.1900,9.8000,3,3,3,0,1,1
6490,2158,76165714,4.375,-5.375,26.625,26.625,-0.318,0.161,-0.100,99979.45,36.19,-97.097,-97.523,-19.5327,0.0000,0.2300,9.7800,-0.0625,-0.0625,0.0625,16.7500,-33.6875,20.5625,-0.0500,0.0200,0.0000,0.0600,0.1900,9.8000,3,3,3,0,1,1
6502,2162,76285984,4.375,-5.375,26.625,26.625,-0.225,-0.215,1.663,99983.90,36.17,-97.050,-97.514,-19.5509,-0.0100,0.2200,9.8000,0.0000,0.1250,0.1250,17.0625,-32.8750,19.3750,-0.0500,0.0400,0.0000,0.0600,0.1900,9.8000,3,3,3,0,1,1
6514,2166,76405917,4.375,-5.375,26.625,26.625,-0.092,0.711,0.292,99972.93,36.19,-97.034,-97.511,-19.5526,0.0000,0.2300,9.8000,0.1250,0.0000,0.0000,15.6875,-33.6875,20.1875,-0.0600,0.0500,0.0000,0.0600,0.1900,9.8000,3,3,3,0,1,1
6526,2170,76525917,4.375,-5.375,26.625,26.625,0.073,-0.128,2.802,99982.87,36.19,-96.933,-97.491,-19.5344,0.0100,0.2400,9.7800,0.0000,0.0000,0.0000,16.0000,-32.1875,20.5625,-0.0700,0.0400,0.0000,0.0600,0.1900,9.8000,3,3,3,0,1,1
6538,2174,76645944,4.375,-5.375,26.625,26.625,-0.204,-2.082,0.201,100006.02,36.18,-96.898,-97.486,-19.5410,-0.0100,0.2200,9.7900,0.0000,0.0000,0.0000,16.7500,-32.8750,20.5625,-0.0700,0.0300,0.0000,0.0600,0.1900,9.8000,3,3,3,0,1,1
6548,2177,76745936,4.375,-5.375,26.625,26.625,0.098,1.556,-2.499,99962.91,36.18,-96.916,-97.489,-19.5243,0.0000,0.2500,9.7700,-0.0625,0.1250,0.0000,15.6875,-33.2500,20.5625,-0.0500,0.0500,0.0000,0.0600,0.1900,9.8000,3,3,3,0,1,1
6559,2181,76866073,4.375,-5.375,26.625,26.625,0.075,-0.560,2.060,99987.99,36.17,-96.835,-97.474,-19.5608,-0.0100,0.2200,9.8100,0.0000,0.0625,0.0000,16.3750,-33.2500,19.7500,-0.0400,0.0500,-0.0100,0.0600,0.1900,9.8000,3,3,3,0,1,1
6569,2184,76966581,4.375,-5.375,26.625,26.625,-0.065,0.500,-2.586,99975.41,36.17,-96.881,-97.485,-19.5528,0.0100,0.2200,9.8000,0.0000,0.1875,-0.0625,17.0625,-32.8750,20.1875,-0.0600,0.0500,0.0000,0.0600,0.1900,9.8000,3,3,3,0,1,1
6580,2188,77076590,4.375,-5.375,26.625,26.625,-0.125,-0.491,0.368,99987.16,36.17,-96.862,-97.483,-19.5228,0.0000,0.2300,9.7700,0.0000,0.0000,0.0625,17.0625,-34.3750,21.7500,-0.0600,0.0400,0.0000,0.0600,0.1900,9.8000,3,3,3,0,1,1
6592,2192,77195520,4.375,-5.375,26.625,26.625,-0.360,-0.151,-2.864,99983.14,36.18,-96.936,-97.500,-19.5610,0.0000,0.2100,9.8100,-0.1250,0.1875,0.0000,15.6875,-32.8750,20.1875,-0.0700,0.0400,0.0000,0.0600,0.1900,9.8000,3,3,3,0,1,1
6604,2196,77316706,4.375,-5.375,26.625,26.625,-0.269,-0.466,0.537,99986.88,36.20,-96.919,-97.497,-19.5457,0.0000,0.2700,9.7900,0.0625,0.0625,0.0000,16.7500,-33.6875,21.0000,-0.0400,0.0500,-0.0400,0.0600,0.1900,9.8000,3,3,3,0,1,1
6616,2200,77436989,4.375,-5.375,26.625,26.625,-0.377,-1.363,-0.446,99997.50,36.19,-96.924,-97.497,-19.5037,0.0000,0.2400,9.7500,0.0625,0.1875,-0.0625,16.0000,-33.2500,19.7500,-0.0700,0.0400,0.0000,0.0600,0.1900,9.8000,3,3,3,0,1,1
6628,2204,77556821,4.375,-5.375,26.625,26.625,-0.449,-0.294,-1.313,99984.83,36.18,-96.991,-97.511,-19.5221,0.0000,0.2200,9.7700,0.0625,-0.0625,0.0000,16.7500,-33.6875,20.5625,-0.0600,0.0300,-0.0200,0.0600,0.1900,9.8000,3,3,3,0,1,1
6640,2208,77676935,4.375,-5.375,26.625,26.625,-0.656,-1.373,-1.161,99997.63,36.18,-97.028,-97.518,-19.5453,0.0200,0.2400,9.7900,0.0000,-0.0625,0.0000,16.0000,-33.6875,20.5625,-0.0500,0.0100,-0.0200,0.0600,0.1900,9.8000,3,3,3,0,1,1
6652,2212,77796972,4.375,-5.375,26.625,26.625,-0.593,-0.173,-0.359,99983.39,36.19,-97.091,-97.530,-19.5326,-0.0100,0.2400,9.7800,-0.0625,-0.0625,0.0000,16.7500,-33.6875,20.5625,-0.0500,0.0600,0.0000,0.0600,0.1900,9.8000,3,3,3,0,1,1
6662,2215,77896950,4.375,-5.375,26.625,26.625,-0.565,-1.471,2.113,99998.79,36.16,-97.050,-97.521,-19.5427,0.0000,0.2300,9.7900,-0.0625,0.0625,-0.0625,15.6875,-33.2500,19.3750,-0.0600,0.0500,0.0100,0.0600,0.1900,9.8000,3,3,2,0,1,1
6674,2219,78017565,4.375,-5.375,26.625,26.625,-0.492,0.693,-1.062,99973.13,36.17,-97.129,-97.537,-19.5327,0.0000,0.2300,9.7800,-0.1250,0.0625,-0.1250,16.0000,-32.5625,20.5625,-0.0600,0.0400,-0.0300,0.0600,0.1900,9.8000,3,3,2,0,1,1
6686,2223,78137772,4.375,-5.375,26.625,26.625,-0.319,0.337,1.865,99977.36,36.17,-97.092,-97.529,-19.5335,0.0000,0.2400,9.7800,-0.1250,0.1875,-0.0625,16.3750,-33.6875,20.1875,-0.0500,0.0400,-0.0200,0.0600,0.1900,9.8000,3,3,2,0,1,1
6698,2227,78257305,4.375,-5.375,26.625,26.625,-0.400,-0.580,-0.008,99988.22,36.19,-97.084,-97.528,-19.5528,0.0100,0.2200,9.8000,0.0000,0.0625,0.0000,14.8750,-34.0625,21.7500,-0.0700,0.0300,0.0000,0.0600,0.1900,9.8000,3,3,2,0,1,1
6710,2231,78377738,4.375,-5.375,26.625,26.625,0.128,1.125,3.434,99968.02,36.18,-97.000,-97.511,-19.5236,0.0000,0.2400,9.7700,0.0000,0.0000,0.0000,16.0000,-33.6875,21.7500,-0.0300,0.0000,-0.0100,0.0600,0.1900,9.8000,3,3,2,0,1,1
6722,2235,78497906,4.375,-5.375,26.625,26.625,-0.176,0.847,-3.232,99971.30,36.18,-97.044,-97.519,-19.5717,0.0000,0.2200,9.8200,0.0000,0.0625,-0.0625,16.7500,-33.6875,20.5625,-0.0600,0.0400,0.0100,0.0600,0.1900,9.8000,3,3,2,0,1,1
6734,2239,78617931,4.375,-5.375,26.625,26.625,-0.282,-1.867,1.945,100003.48,36.20,-96.965,-97.504,-19.5526,0.0000,0.2300,9.8000,0.0000,0.0625,0.0625,16.3750,-33.2500,21.3750,-0.0400,0.0300,-0.0100,0.0600,0.1900,9.8000,3,3,2,0,1,1
6746,2243,78738143,4.375,-5.375,26.625,26.625,-0.266,-0.697,-0.570,99989.61,36.18,-96.992,-97.509,-19.5236,0.0000,0.2400,9.7700,0.0000,0.0625,-0.0625,16.0000,-33.6875,21.0000,-0.0600,0.0300,-0.0100,0.0600,0.1900,9.8000,3,3,2,0,1,1
6759,2247,78868466,4.375,-5.375,26.625,26.625,-0.022,0.621,0.653,99973.99,36.16,-96.961,-97.502,-19.5436,0.0100,0.2300,9.7900,0.1250,0.2500,0.0000,14.8750,-33.6875,20.1875,-0.0800,0.0300,-0.0300,0.0600,0.1900,9.8000,3,3,2,0,1,1
6771,2251,78988700,4.375,-5.375,26.625,26.625,0.138,0.999,1.012,99969.51,36.19,-96.911,-97.492,-19.5243,0.0000,0.2500,9.7700,-0.0625,-0.1250,0.0625,16.0000,-33.6875,20.1875,-0.0400,0.0400,0.0200,0.0600,0.1900,9.8000,3,3,2,0,1,1
6783,2255,79108161,4.375,-5.375,26.625,26.625,-0.093,-0.567,0.251,99988.07,36.19,-96.880,-97.488,-19.5740,0.0000,0.2500,9.8200,0.0625,0.0625,0.0625,17.0625,-32.8750,21.0000,-0.0700,0.0400,-0.0100,0.0600,0.1900,9.8000,3,3,2,0,1,1
6795,2259,79228686,4.375,-5.375,26.625,26.625,-0.286,-0.651,-1.269,99989.06,36.18,-96.913,-97.495,-19.5028,-0.0100,0.2400,9.7500,-0.0625,0.0000,0.1250,16.3750,-33.2500,19.7500,-0.0700,0.0400,-0.0200,0.0600,0.1900,9.8000,3,3,2,0,1,1
6807,2263,79347910,4.375,-5.375,26.625,26.625,-0.403,0.907,-2.958,99970.59,36.19,-97.010,-97.515,-19.5221,0.0000,0.2200,9.7700,0.0000,-0.0625,0.0000,16.3750,-32.8750,19.3750,-0.0800,0.0600,0.0000,0.0600,0.1900,9.8000,3,3,2,0,1,1
6819,2267,79468830,4.375,-5.375,26.625,26.625,-0.520,0.033,-0.489,99980.96,36.19,-97.034,-97.521,-19.5541,0.0000,0.2500,9.8000,-0.1250,0.0000,0.0625,16.3750,-32.8750,20.1875,-0.0600,0.0400,-0.0200,0.0600,0.1900,9.8000,3,3,2,0,1,1
6831,2271,79589019,4.375,-5.375,26.625,26.625,-0.104,0.428,3.361,99976.27,36.18,-96.960,-97.506,-19.5310,-0.0100,0.2200,9.7800,-0.0625,-0.1250,0.0000,16.7500,-33.2500,20.5625,-0.0700,0.0400,-0.0100,0.0600,0.1900,9.8000,3,3,2,0,1,1
6843,2275,79708939,4.375,-5.375,26.625,26.625,-0.013,0.323,0.969,99977.52,36.20,-96.923,-97.499,-19.5135,-0.0100,0.2500,9.7600,0.0000,0.1250,0.0000,15.6875,-34.0625,20.5625,-0.0500,0.0400,-0.0300,0.0600,0.1900,9.8000,3,3,2,0,1,1
6855,2279,79828940,4.375,-5.375,26.625,26.625,-0.085,-0.980,0.636,99992.97,36.20,-96.877,-97.490,-19.5245,0.0100,0.2400,9.7700,0.0625,-0.0625,0.0000,16.3750,-33.6875,20.1875,-0.0800,0.0300,-0.0100,0.0600,0.1900,9.8000,3,3,2,0,1,1
6864,2282,79929471,4.375,-5.375,26.625,26.625,0.055,0.207,-0.507,99978.89,36.18,-96.876,-97.490,-19.5329,0.0100,0.2200,9.7800,0.0625,0.0625,0.0625,17.0625,-34.3750,21.3750,-0.0500,0.0500,0.0000,0.0600,0.1900,9.8000,3,3,3,0,1,1
6874,2285,80029447,4.375,-5.375,26.625,26.625,-0.115,-0.367,-0.044,99985.70,36.19,-96.884,-97.492,-19.5320,0.0000,0.2200,9.7800,0.0000,-0.1875,0.1250,16.0000,-33.6875,20.5625,-0.0400,0.0500,-0.0100,0.0600,0.1900,9.8000,3,3,3,0,1,1
6885,2289,80139771,4.375,-5.375,26.625,26.625,-0.518,-0.754,-3.452,99990.29,36.19,-96.975,-97.512,-19.5228,0.0000,0.2300,9.7700,-0.0625,-0.1875,0.0625,16.0000,-33.2500,20.1875,-0.0500,0.0500,0.0100,0.0600,0.1900,9.8000,3,3,3,0,1,1
6897,2293,80259196,4.375,-5.375,26.625,26.625,-0.445,0.310,-0.938,99977.67,36.20,-97.024,-97.522,-19.5449,0.0000,0.2600,9.7900,0.0000,0.0000,0.0000,16.3750,-32.8750,19.3750,-0.0700,0.0500,0.0000,0.0600,0.1900,9.8000,3,3,3,0,1,1
6909,2297,80379677,4.375,-5.375,26.625,26.625,-0.322,0.618,-0.307,99974.02,36.19,-97.030,-97.523,-19.5213,0.0000,0.2100,9.7700,0.0625,0.0625,-0.0625,16.7500,-33.2500,21.0000,-0.0500,0.0400,-0.0100,0.0600,0.1900,9.8000,3,3,3,0,1,1
6921,2301,80498894,4.375,-5.375,26.625,26.625,-0.386,-0.032,0.011,99981.73,36.20,-97.037,-97.525,-19.5412,0.0000,0.2100,9.7900,0.0625,0.0625,-0.0625,15.6875,-32.5625,19.7500,-0.0600,0.0500,0.0000,0.0600,0.1900,9.8000,3,3,3,0,1,1
6933,2305,80619832,4.375,-5.375,26.625,26.625,-0.585,-1.565,-0.854,99999.89,36.21,-97.054,-97.528,-19.5732,0.0000,0.2400,9.8200,0.0625,0.1250,0.0000,16.3750,-32.5625,20.1875,-0.0500,0.0400,-0.0100,0.0600,0.1900,9.8000,3,3,3,0,1,1
6945,2309,80740023,4.375,-5.375,26.625,26.625,-0.399,-0.682,0.997,99989.44,36.19,-97.056,-97.528,-19.5335,0.0000,0.2400,9.7800,0.0000,0.0000,0.0000,16.0000,-32.8750,20.1875,-0.0400,0.0500,-0.0100,0.0600,0.1900,9.8000,3,3,3,0,1,1
6958,2313,80870493,4.375,-5.375,26.625,26.625,-0.356,-0.696,0.766,99989.60,36.19,-97.049,-97.526,-19.5534,0.0000,0.2400,9.8000,0.0625,0.0000,0.1250,15.2500,-32.8750,20.1875,-0.0600,0.0000,-0.0300,0.0600,0.1900,9.8000,3,3,2,0,1,1
6970,2317,80990137,4.375,-5.375,26.625,26.625,-0.267,-0.418,0.346,99986.30,36.19,-97.038,-97.524,-19.5310,-0.0100,0.2200,9.7800,-0.0625,-0.0625,0.1250,16.0000,-32.5625,21.0000,-0.0700,0.0600,-0.0200,0.0600,0.1900,9.8000,3,3,2,0,1,1
6982,2321,81110052,4.375,-5.375,26.625,26.625,-0.384,-0.032,-1.889,99981.73,36.19,-97.086,-97.533,-19.5740,0.0000,0.2500,9.8200,0.0000,0.0000,-0.0625,15.2500,-34.0625,21.3750,-0.0600,0.0500,-0.0100,0.0600,0.1900,9.8000,3,3,2,0,1,1
6994,2325,81230471,4.375,-5.375,26.625,26.625,-0.483,-0.448,-0.798,99986.66,36.20,-97.105,-97.536,-19.5129,0.0000,0.2300,9.7600,0.0625,0.0000,0.0000,15.6875,-33.2500,21.3750,-0.0600,0.0400,0.0000,0.0600,0.1900,9.8000,3,3,2,0,1,1
7006,2329,81349881,4.375,-5.375,26.625,26.625,-0.298,-0.340,1.032,99985.38,36.21,-97.078,-97.531,-19.5434,0.0000,0.2400,9.7900,0.0000,-0.0625,0.0000,16.7500,-34.0625,19.3750,-0.0600,0.0500,0.0100,0.0600,0.1900,9.8000,3,3,2,0,1,1
7018,2333,81470603,4.375,-5.375,26.625,26.625,-0.501,-0.118,-2.168,99982.75,36.21,-97.141,-97.543,-19.5228,0.0000,0.2300,9.7700,0.0625,0.0000,0.0625,15.6875,-34.0625,20.1875,-0.0500,0.0300,-0.0300,0.0600,0.1900,9.8000,3,3,2,0,1,1
7030,2337,81590864,4.375,-5.375,26.625,26.625,-0.321,0.320,1.019,99977.56,36.21,-97.125,-97.539,-19.5543,0.0100,0.2400,9.8000,-0.1250,0.0625,0.1250,16.0000,-32.8750,20.5625,-0.0300,0.0400,0.0200,0.0600,0.1900,9.8000,3,3,2,0,1,1
7042,2341,81710302,4.375,-5.375,26.625,26.625,-0.058,0.632,1.414,99973.86,36.21,-97.068,-97.527,-19.5343,0.0000,0.2500,9.7800,0.0625,0.0625,-0.0625,16.0000,-33.6875,20.1875,-0.0900,0.0300,0.0100,0.0600,0.1900,9.8000,3,3,2,0,1,1
7054,2345,81830831,4.375,-5.375,26.625,26.625,-0.197,-1.189,1.164,99995.44,36.20,-97.011,-97.515,-19.5335,0.0000,0.2400,9.7800,-0.1250,0.0000,0.1250,15.6875,-33.6875,21.0000,-0.0400,0.0400,-0.0100,0.0600,0.1900,9.8000,3,3,2,0,1,1
7063,2348,81930824,4.375,-5.375,26.625,26.625,-0.304,-0.147,-2.418,99983.09,36.20,-97.069,-97.527,-19.5335,0.0000,0.2400,9.7800,0.0625,0.1250,0.0625,16.3750,-33.6875,19.0000,-0.0800,0.0400,-0.0200,0.0600,0.1900,9.8000,3,3,3,0,1,1
7075,2352,82050926,4.375,-5.375,26.625,26.625,-0.566,-1.021,-1.669,99993.45,36.20,-97.110,-97.535,-19.5526,0.0000,0.2300,9.8000,-0.0625,0.0000,0.0000,16.0000,-33.2500,19.3750,-0.0700,0.0500,0.0000,0.0600,0.1900,9.8000,3,3,3,0,1,1
7087,2356,82170952,4.375,-5.375,26.625,26.625,-0.351,-0.273,0.559,99984.59,36.19,-97.101,-97.534,-19.5442,0.0000,0.2500,9.7900,0.0000,0.0625,-0.0625,16.7500,-33.6875,19.7500,-0.0400,0.0300,-0.0100,0.0600,0.1900,9.8000,3,3,3,0,1,1
7099,2360,82291642,4.375,-5.375,26.625,26.625,-0.300,0.046,0.229,99980.80,36.21,-97.102,-97.534,-19.5129,0.0000,0.2300,9.7600,0.1250,0.0625,0.1250,16.0000,-33.2500,19.3750,-0.0600,0.0600,0.0000,0.0600,0.1900,9.8000,3,3,3,0,1,1
7109,2363,82391628,4.375,-5.375,26.625,26.625,-0.588,-1.161,-0.499,99995.12,36.21,-97.142,-97.542,-19.5417,-0.0100,0.2300,9.7900,-0.1250,0.0000,0.0000,16.7500,-32.5625,21.3750,-0.0600,0.0400,-0.0100,0.0600,0.1900,9.8000,3,3,3,0,1,1
7120,2367,82500902,4.375,-5.375,26.625,26.625,-0.382,-0.281,0.630,99984.68,36.20,-97.130,-97.540,-19.5741,0.0100,0.2400,9.8200,0.0000,0.1250,-0.0625,16.7500,-33.2500,20.1875,-0.0600,0.0200,0.0100,0.0600,0.1900,9.8000,3,3,3,0,1,1
7132,2371,82621581,4.375,-5.375,26.625,26.625,-0.251,-0.008,0.716,99981.45,36.21,-97.106,-97.535,-19.5444,0.0100,0.2400,9.7900,0.0625,0.0000,0.0000,16.3750,-33.6875,19.7500,-0.0500,0.0400,-0.0300,0.0600,0.1900,9.8000,3,3,3,0,1,1
7144,2375,82741881,4.375,-5.375,26.625,26.625,-0.355,-0.461,-0.101,99986.81,36.21,-97.107,-97.535,-19.5434,0.0000,0.2400,9.7900,0.0625,0.0000,-0.0625,16.7500,-33.2500,19.0000,-0.0700,0.0200,0.0000,0.0600,0.1900,9.8000,3,3,3,0,1,1
7156,2379,82861357,4.375,-5.375,26.625,26.625,-0.559,-0.943,-1.118,99992.52,36.21,-97.143,-97.542,-19.5442,0.0000,0.2500,9.7900,0.0625,-0.1875,-0.0625,16.0000,-33.2500,21.3750,-0.0700,0.0500,0.0000,0.0600,0.1900,9.8000,3,3,3,0,1,1
7168,2383,82981821,4.375,-5.375,26.625,26.625,-0.680,-1.501,-0.065,99999.14,36.21,-97.168,-97.547,-19.5152,0.0000,0.2600,9.7600,0.0625,0.0000,0.0000,16.3750,-32.8750,20.5625,-0.0300,0.0500,-0.0100,0.0600,0.1900,9.8000,3,3,3,0,1,1
7180,2387,83101910,4.375,-5.375,26.625,26.625,-0.491,-0.089,1.299,99982.41,36.22,-97.188,-97.550,-19.5343,0.0000,0.2500,9.7800,-0.0625,0.0000,0.1250,16.3750,-33.2500,21.3750,-0.0700,0.0300,0.0000,0.0600,0.1900,9.8000,3,3,3,0,1,1
7192,2391,83222320,5.000,-5.438,25.569,22.750,-0.522,0.027,-0.347,99981.03,36.21,-97.209,-97.552,-19.1320,-3.4300,-1.3600,9.8500,0.3750,1.4375,130.3750,16.0000,-32.8750,20.1875,-4.8300,-1.8200,-0.2500,0.1700,0.2100,9.8000,3,3,3,0,1,1
7202,2394,83322465,3.062,-4.812,13.162,355.375,-0.363,-0.223,0.690,99983.99,36.22,-97.168,-97.546,-18.0222,-1.7800,-2.8700,8.5600,-1.0625,33.7500,322.6875,8.5625,-35.8750,19.7500,-2.4600,-4.1000,-0.4200,-0.1600,0.1000,9.8000,3,3,3,0,1,1
7213,2398,83432444,6.625,-6.875,-11.918,327.375,-0.529,-1.130,-0.226,99994.74,36.22,-97.178,-97.524,-19.6691,-0.8500,-1.0000,10.2200,5.1250,-47.9375,220.0000,-9.8750,-34.7500,20.1875,-0.7600,-1.5000,0.3900,0.4500,0.4500,9.7800,3,3,3,0,1,1
7225,2402,83552037,3.125,-4.688,-38.517,301.750,-0.524,-0.683,0.672,99989.45,36.23,-97.196,-97.640,-20.5838,1.2900,-0.1200,10.7300,1.5625,121.9375,208.8750,-20.2500,-27.3750,23.0625,0.6700,-0.6000,1.3500,-0.1600,0.0700,9.8000,3,3,3,0,1,1
7237,2406,83672588,20.562,-7.000,-55.728,296.875,-0.174,-0.652,3.885,99989.08,36.22,-97.111,-97.620,-20.7461,2.4600,2.0500,10.6800,-9.6250,-324.8125,-22.8750,-30.6875,-17.3750,20.5625,2.2300,0.9900,2.9800,2.8000,0.4500,9.3800,3,3,3,0,1,1
7249,2410,83792889,58.125,9.750,-34.269,33.312,-0.275,-0.014,-0.994,99981.51,36.22,-97.134,-97.231,-10.3678,7.8700,-2.3200,7.3700,-180.3750,-355.3125,-79.0625,-17.3750,-17.7500,34.8750,0.9200,-2.0800,1.6900,7.9400,-1.3900,5.5700,3,3,3,0,1,1
7258,2413,83892889,82.438,67.562,12.683,47.750,-0.120,0.890,-0.494,99970.80,36.20,-97.027,-95.825,0.0427,10.2500,-1.3000,2.3200,-203.1875,-264.6250,-3.7500,2.6875,-25.8750,33.2500,0.6500,0.1400,1.3200,9.6000,-1.8600,0.6100,3,3,3,0,1,1
7270,2417,84010183,73.562,-171.812,57.819,95.875,-0.136,-0.088,0.764,99982.40,36.21,-96.690,-94.243,-10.4217,4.5100,0.2500,-0.7500,-343.0000,-136.6875,-119.8125,18.8750,-36.8750,2.5000,-4.6800,-0.4800,2.5800,9.1900,0.7300,-3.3300,3,3,3,0,1,1
7282,2421,84132821,64.938,-100.562,117.590,158.875,-0.291,-0.514,-1.643,99987.45,36.21,-96.314,-93.541,-19.9694,10.7100,2.1700,0.0700,-371.0625,107.2500,-72.6875,24.6875,-27.5625,-20.3750,3.9700,-2.6700,1.8000,8.5700,4.7300,-0.5200,3,3,3,0,1,1
7294,2425,84253036,66.938,-21.625,147.840,154.938,-0.463,-0.990,-2.254,99993.09,36.21,-95.995,-93.732,-19.3291,11.8600,4.5500,3.4600,-138.5625,67.0000,295.0000,33.2500,-13.5000,-21.5625,4.5400,2.7600,-0.9800,8.7300,1.3300,4.2500,3,3,3,0,1,1
7306,2429,84373333,47.438,42.812,126.332,26.062,-0.315,0.304,-0.068,99977.74,36.22,-95.646,-92.476,-4.6472,11.3500,-1.3800,6.6500,110.0000,151.6250,358.5625,26.1875,-28.2500,-18.0000,5.4900,3.0700,3.0100,6.7400,-5.2100,4.8500,3,3,3,0,1,1
7316,2432,84472944,-16.250,26.812,43.515,337.625,0.009,1.467,2.388,99963.96,36.22,-95.204,-91.839,-17.1443,3.4800,-5.2000,8.8800,100.5625,242.7500,865.1875,8.3750,-40.1875,-8.0625,10.1700,-8.2000,-2.2700,-3.3900,-4.7500,7.8700,3,3,3,0,1,1
7327,2436,84583437,-24.750,-8.688,-18.051,302.500,-0.122,-0.241,-0.219,99984.21,36.21,-94.772,-91.736,-14.5155,-2.3500,2.8400,6.9500,200.6250,-54.6250,311.8750,-26.5000,-31.0000,2.0625,2.2200,3.4600,-1.5600,-4.7200,0.6600,8.5600,3,3,3,0,1,1
7339,2440,84703126,3.375,-27.562,-58.980,274.750,0.013,-0.775,2.404,99990.53,36.22,-94.278,-91.524,-20.9588,-0.5000,5.3100,12.5500,-46.1250,-212.4375,272.9375,-36.0625,-11.2500,10.6875,-1.4100,2.1300,3.7600,-0.1100,3.8800,9.0000,3,3,3,0,1,1
7351,2444,84823565,51.375,4.688,-73.840,356.875,-0.248,0.089,-4.343,99980.30,36.21,-94.010,-91.886,-19.6660,2.6200,2.7500,12.7500,-363.4375,-410.3750,117.0000,-22.5625,6.5000,37.3750,-4.1600,3.9800,5.0800,7.2200,-1.0300,6.5500,3,3,3,0,1,1
7360,2447,84923695,66.062,116.375,-28.115,4.438,-0.436,-1.985,0.502,100004.88,36.21,-93.700,-90.930,-6.5504,2.9800,0.4500,2.2400,-422.8750,-468.1250,95.9375,4.2500,-12.2500,43.0625,-6.3400,4.3000,3.5700,8.6600,-3.9400,-2.3300,2,3,3,1,1,1
7372,2451,85043889,58.250,-176.875,22.188,83.938,-0.465,0.358,-2.363,99977.11,36.20,-93.353,-89.704,-8.0018,7.2200,4.3900,-2.9100,-500.1875,212.7500,-91.5000,22.0625,-33.3750,10.3750,-0.6500,4.1200,3.3500,7.9500,0.7300,-5.6800,2,3,3,1,1,1
7384,2455,85163405,59.250,-77.312,105.775,154.875,-0.469,-1.099,1.542,99994.38,36.21,-92.809,-89.138,-22.2773,11.4200,6.5500,0.8300,-363.3750,367.7500,-38.3125,32.7500,-22.0625,-19.5000,1.8600,1.6400,-0.3300,8.0500,5.3400,1.6200,2,3,3,1,1,1
7396,2459,85284312,36.875,-16.062,93.930,58.125,0.061,1.829,1.650,99959.67,36.21,-92.345,-89.593,-20.8703,4.5600,7.8000,6.9000,-320.0000,357.4375,348.1875,40.0625,-10.5625,-4.8750,-0.5800,2.2200,0.1600,5.3200,1.6800,8.0500,2,3,3,1,1,1
7408,2463,85403229,7.750,31.312,56.198,32.000,0.063,0.402,1.047,99976.59,36.21,-91.900,-89.151,-9.8686,2.9600,0.3700,1.8400,-368.7500,216.2500,422.0625,33.7500,-26.2500,5.2500,1.8300,6.2500,-5.7600,-0.1200,-6.1600,7.6200,2,3,3,1,1,1
7420,2467,85524467,-53.375,8.938,-21.317,240.250,-0.191,0.461,-2.842,99975.89,36.21,-91.534,-88.581,-15.2298,-12.5000,2.2100,8.8800,175.1875,92.8750,573.0625,-5.5000,-41.7500,-9.5000,-5.8100,6.9400,4.8400,-8.2600,-1.2000,5.1300,2,3,3,1,1,1
7432,2471,85644647,-29.250,-38.312,-78.259,294.938,-0.104,-0.661,1.019,99989.18,36.21,-91.016,-87.425,-8.6232,-7.1200,7.4300,8.8800,-61.0000,-264.7500,280.5000,-32.8750,-23.5625,-3.3750,-1.4000,3.5300,1.4700,-5.3800,4.5900,6.7800,2,3,3,1,1,1
7442,2474,85744681,16.812,-29.562,-76.772,278.438,-0.108,0.985,-0.973,99969.68,36.21,-90.633,-87.109,-20.1283,-3.4100,7.3700,12.1900,-170.9375,-404.5625,242.3125,-37.7500,-5.5625,10.0625,-5.6200,2.7900,3.8800,2.1700,4.0900,8.6400,2,3,3,1,1,1
7453,2478,85853157,63.625,9.375,-49.996,10.062,-0.281,-0.816,-0.130,99991.02,36.21,-90.201,-87.322,-15.7437,0.4400,3.5300,6.5900,-499.6875,-578.0000,49.6875,-23.6875,3.5625,36.6875,-7.8800,4.7900,1.8100,8.9100,-1.6100,3.7500,2,3,3,3,1,1
7463,2481,85964150,55.438,174.250,8.505,66.312,-0.383,-1.041,-0.568,99993.69,36.19,-89.853,-86.404,-9.2477,7.3000,4.0400,-6.1700,-460.4375,-57.0000,43.3125,23.1875,-31.6875,10.8750,-0.9500,5.7000,2.6800,7.6600,-0.1500,-6.1100,2,3,3,3,1,1
7474,2485,86074702,63.062,-102.688,87.557,148.125,-0.581,-0.598,-2.231,99988.43,36.19,-89.459,-85.640,-19.0250,11.4800,11.7400,-3.1900,-479.1875,294.8125,-42.1875,28.0000,-29.0625,-15.7500,0.9900,5.0100,-3.6900,8.4100,4.9800,-0.7400,2,3,3,3,1,1
7486,2489,86194889,40.875,-19.375,104.570,62.625,-0.293,0.152,2.066,99979.55,36.22,-88.978,-86.127,-23.1760,9.1000,4.1600,10.9100,-267.2500,263.1250,192.0625,37.6875,-14.1875,-12.0000,2.4600,2.7100,3.6900,5.8800,2.0500,7.5700,2,3,3,3,1,1
7498,2493,86314157,18.750,31.812,66.491,43.938,-0.245,-0.724,1.364,99989.93,36.20,-88.579,-86.062,-12.8123,3.6000,0.0400,6.0800,-335.0000,76.1875,327.1875,32.0625,-27.5000,-2.8750,2.1100,5.0500,-2.3700,2.1000,-6.1300,7.3500,2,3,3,3,1,1
7510,2497,86435328,-32.688,39.500,110.896,351.938,-0.260,0.141,-0.281,99979.67,36.21,-88.202,-85.112,-12.6303,-2.1800,2.3800,3.7400,135.2500,91.0000,650.6250,12.7500,-40.2500,-15.2500,0.5300,8.7300,-1.8600,-5.8600,-5.4400,5.6700,2,3,3,3,1,1
7522,2501,86554214,-39.625,-34.812,-155.907,306.000,-0.334,0.152,-1.012,99979.55,36.21,-87.795,-84.303,-6.8189,-5.5900,8.7900,7.6000,154.1250,-68.7500,458.5625,-24.2500,-34.7500,-8.2500,-1.1600,4.9400,3.1700,-6.4100,4.2900,6.0500,2,3,3,3,1,1
7534,2505,86675373,3.562,-37.250,-104.579,265.938,-0.119,0.586,1.378,99974.41,36.21,-87.252,-83.516,-16.4559,-3.0600,9.1700,10.1300,-221.1250,-285.8125,222.0000,-38.7500,4.0625,6.3750,-2.2500,3.6100,1.4900,-0.0700,5.3400,8.2200,2,3,3,3,1,1
7544,2508,86775049,35.250,-5.500,-102.544,254.875,-0.236,-0.421,0.687,99986.34,36.21,-86.861,-83.837,-21.8089,-0.7200,6.2400,10.4400,-353.2500,-338.3750,185.0625,-29.0625,13.6875,28.3750,-6.1300,5.3700,1.9300,5.0900,0.1800,8.3800,2,3,3,3,1,1
7554,2511,86875451,62.812,58.688,-60.417,353.562,-0.148,-0.198,-0.216,99983.70,36.21,-86.515,-83.911,-10.9624,1.4900,2.4800,5.4000,-506.2500,-400.5000,-61.1875,-8.5000,-1.3750,44.7500,-5.7900,6.7300,1.9200,8.3900,-4.5200,2.3000,2,3,3,3,1,1
7565,2515,86985584,59.812,162.062,0.978,61.562,-0.305,-0.853,-0.940,99991.46,36.20,-86.128,-82.369,-3.1979,10.7800,6.3900,-4.1100,-627.1250,144.6875,65.0625,15.5625,-30.2500,23.2500,1.4300,7.9000,2.8500,8.1100,-1.3000,-5.3500,2,3,3,3,1,1
7577,2519,87104146,71.625,-106.625,93.849,151.562,-0.028,0.025,2.092,99981.05,36.20,-85.529,-81.254,-14.0729,6.9100,7.6900,2.9600,-387.5625,244.3125,-50.0000,20.0625,-34.0000,-16.3750,-2.1500,4.0400,3.7600,9.0400,3.7900,-0.1600,2,3,3,3,1,1
7589,2523,87225703,45.188,-33.062,134.429,89.062,-0.067,0.079,-0.786,99980.41,36.20,-85.010,-81.861,-25.6498,11.5400,9.7200,6.3800,-259.6250,256.5625,24.0625,36.5625,-3.0625,-22.7500,5.3800,5.3800,1.1700,6.4600,3.5500,6.4600,2,3,3,3,1,1
7601,2527,87345890,35.375,11.188,98.379,77.562,-0.120,-0.539,0.868,99987.74,36.20,-84.634,-82.668,-19.1686,10.0100,3.5100,11.6400,-331.6875,9.5000,321.5000,40.6875,0.1875,-6.3750,4.0700,4.7500,2.3100,5.1000,-2.2300,8.0600,2,3,3,3,1,1
7613,2531,87466229,9.750,52.312,127.495,201.375,-0.270,0.314,-3.072,99977.62,36.21,-84.391,-81.962,-7.2633,4.1100,-1.2400,1.3900,-37.7500,-22.2500,446.5625,29.5625,-27.0625,-13.3750,0.8900,9.5600,-2.7800,0.9900,-8.1400,5.3700,2,3,3,3,1,1
7625,2535,87586348,-39.250,16.500,81.406,325.688,-0.163,-0.150,1.727,99983.13,36.20,-83.993,-81.516,-12.3682,-4.9500,7.2500,7.4800,141.2500,23.6875,722.4375,-0.7500,-42.0000,-13.7500,-0.5300,11.0800,0.9100,-6.7200,-2.5300,6.6700,2,3,3,3,1,1
97635,2538,87685949,-18.250,-37.375,20.917,279.812,-0.177,-0.849,0.715,99991.41,36.21,-83.661,-80.934,-14.6759,-1.8800,9.4800,11.0900,134.3125,-238.5000,487.1250,-37.8750,-20.0625,-4.0000,-2.2000,7.5400,4.9700,-3.7100,4.9600,7.5900,2,3,3,3,1,1
7646,2542,87796107,23.938,-31.000,-64.824,243.812,-0.104,0.115,-1.040,99979.99,36.22,-83.334,-81.066,-22.0039,-1.0000,9.2500,12.1200,-182.2500,-173.3125,350.4375,-38.2500,12.1875,12.3750,-2.7100,4.4500,4.5400,3.3400,4.1500,8.2200,2,3,3,3,1,1
7655,2545,87896628,49.062,20.938,-94.178,315.750,-0.177,-0.245,0.217,99984.25,36.19,-83.116,-81.542,-15.4898,4.6200,2.7100,8.8600,-399.5625,-221.8750,263.6875,-18.0000,24.2500,31.1875,-3.9800,5.8200,2.4400,6.9400,-2.9500,6.2600,2,3,3,3,1,1
7667,2549,88016064,48.250,111.062,-58.667,316.812,-0.321,-1.257,-0.859,99996.25,36.20,-82.858,-80.960,-12.7269,-2.4900,-0.6900,-1.7200,-455.8125,-311.4375,-84.2500,12.0625,-11.7500,38.1875,-8.2900,6.0100,0.6400,6.8400,-6.3400,-3.0000,2,3,3,3,1,1
\7679,2553,88136584,64.688,-158.688,-6.465,61.875,-0.400,0.420,-2.255,99976.38,36.21,-82.624,-79.994,-8.0322,8.6900,6.8600,-2.1200,-349.1250,217.7500,-370.3750,29.8750,-25.5625,11.3750,2.9900,7.7400,3.6400,8.5500,2.0600,-4.3200,2,3,3,3,1,1
7691,2557,88255164,61.188,-66.188,70.559,110.562,-0.432,-0.247,0.118,99984.27,36.22,-82.302,-80.383,-25.6864,12.5600,10.4100,3.6300,-534.1875,355.8125,112.3750,36.0625,-14.0625,9.5625,4.8700,5.3900,0.1300,8.1600,4.2400,3.4000,2,3,3,3,1,1
7703,2561,88376709,20.250,33.812,46.202,11.500,-0.144,0.140,2.824,99979.69,36.20,-82.025,-80.640,-10.2696,6.0800,1.3400,4.4400,-390.0625,171.6875,319.1250,21.3750,-36.1875,4.1875,2.2200,6.8300,-3.5700,2.7400,-5.8000,7.4100,2,3,3,3,1,1
7715,2565,88496870,-18.062,51.062,130.459,205.000,-0.401,-1.508,0.032,99999.22,36.21,-81.764,-79.792,-14.4476,-2.1300,-1.2400,4.5900,-19.2500,-8.5625,451.3750,-0.2500,-41.0000,-16.5625,0.7800,6.5400,-0.5200,-3.6900,-7.4700,5.1600,2,3,3,3,1,1
17727,2569,88616140,-41.250,0.000,69.858,185.250,-0.335,0.022,-0.182,99981.09,36.21,-81.522,-79.560,-14.7910,-9.1000,3.4100,9.6200,200.8750,-106.5000,524.2500,-37.0000,-15.5000,-12.8750,-1.1800,3.0700,3.6900,-6.7800,0.2900,7.0700,2,3,3,3,1,1
7739,2573,88736832,0.625,-34.750,-56.511,245.062,-0.550,-1.719,-0.272,100001.73,36.21,-81.254,-79.505,-18.1572,-4.0600,7.3800,12.9000,54.3750,-235.6875,256.3750,-37.7500,10.2500,1.6875,-2.3600,3.0100,4.8100,-0.5800,4.9700,8.4300,2,3,3,3,1,1
7752,2577,88867090,32.250,-9.812,-107.779,231.875,-0.589,0.327,-2.683,99977.48,36.23,-81.148,-80.196,-23.4822,0.1100,6.1300,12.5200,-381.5625,-109.8750,89.7500,-19.5625,27.2500,26.0625,-4.1800,5.1800,3.1300,4.6500,0.8400,8.5900,2,3,3,3,1,1
7764,2581,88987456,47.375,44.750,-112.587,258.000,-0.571,-0.756,1.108,99990.31,36.20,-81.009,-80.180,-10.0584,4.5200,1.0400,6.0100,-533.3125,-80.5000,-169.7500,-11.0625,8.3750,44.0625,-1.6300,7.0000,0.6100,6.7300,-5.3700,4.6700,2,3,3,3,1,1
7776,2585,89106952,75.625,111.312,-12.615,53.750,-0.225,0.472,2.534,99975.76,36.20,-80.770,-78.778,-1.9601,7.7000,2.2400,-1.2800,-436.0625,28.4375,-250.5625,-1.7500,-27.1875,31.3750,-1.3300,5.4600,0.3700,9.3000,-2.7800,-1.3300,2,3,3,3,1,1
7788,2589,89227465,62.438,-55.250,75.619,136.688,-0.551,-1.107,-1.208,99994.47,36.19,-80.466,-78.225,-24.0205,8.4300,12.3600,3.9500,-331.6250,331.0000,-328.5000,25.6875,-31.3750,-7.5625,0.8800,4.4500,1.9300,8.3500,3.9800,3.2200,2,3,3,3,1,1
7800,2593,89347746,34.188,-31.688,81.754,72.562,-0.357,-0.957,1.958,99992.70,36.20,-80.192,-79.074,-25.3021,7.1600,8.2600,11.0600,-190.3750,58.3750,-58.4375,39.0000,-10.2500,-2.0000,2.4500,5.0500,3.7400,4.9300,3.9000,7.5100,2,3,3,3,1,1
7812,2597,89467584,26.750,15.000,73.684,66.375,-0.584,-1.501,-1.335,99999.15,36.20,-80.138,-79.991,-17.3304,6.6600,3.9700,8.7200,-408.6875,7.5000,252.6250,40.3750,-9.7500,6.5625,1.3600,5.9800,-0.1600,3.7900,-2.9800,8.5300,2,3,3,3,1,1
7824,2601,89587696,-6.500,46.000,138.998,236.938,-0.259,-1.263,3.564,99996.32,36.20,-79.991,-79.410,-11.2810,0.9100,-2.4100,2.8100,-14.1250,107.4375,492.7500,31.3750,-27.6875,-4.0625,2.6100,5.7500,-2.9700,-1.7800,-7.4100,6.1600,2,3,3,3,1,1
7836,2605,89706930,-47.875,10.438,161.395,250.750,-0.432,-0.487,-2.218,99987.12,36.21,-79.945,-79.360,-15.8735,-12.6400,1.2700,7.1300,59.3750,-45.8750,415.0000,5.0000,-42.1875,-5.6875,-2.1900,0.3100,0.7500,-7.6800,-1.0000,6.0000,2,3,3,3,1,1
7848,2609,89828210,-19.438,-21.250,-95.149,308.562,-0.407,-1.386,2.122,99997.78,36.23,-79.791,-79.064,-14.0662,-9.8600,5.1500,10.7300,-75.8750,-236.7500,240.0000,-30.8750,-24.7500,8.5625,-5.0200,2.3400,3.0300,-3.9000,2.6300,8.6000,2,3,3,3,1,1
7857,2612,89928348,9.625,1.438,-70.678,308.000,-0.226,0.611,-1.454,99974.11,36.19,-79.735,-79.407,-22.1006,-5.4900,0.6700,12.2200,-308.5000,-299.8750,-212.8750,-32.0625,-14.6875,21.6875,-5.2900,2.0100,2.4300,0.9700,-0.9600,9.7100,3,3,3,3,1,1
7869,2616,90048136,66.750,35.000,-2.056,97.062,-0.027,1.568,1.143,99962.77,36.21,-79.655,-79.304,-4.2066,3.7500,-6.3700,4.1600,-420.2500,-293.6875,-517.0625,-12.0625,-33.5625,20.0625,-7.0200,2.4100,1.2700,8.7100,-2.8400,3.4700,3,3,3,3,1,1
7881,2620,90168067,57.312,-39.125,106.769,173.688,-0.220,-0.875,-0.061,99991.72,36.21,-79.505,-79.050,-18.4180,3.7000,5.9300,5.7400,-299.6875,200.2500,-325.1875,33.6875,-18.5000,-21.6875,-3.6200,1.5200,1.6800,7.8600,3.3400,4.7900,3,3,3,3,1,1
7893,2624,90288468,31.812,-29.438,110.598,111.875,-0.199,-1.165,0.196,99995.16,36.20,-79.413,-79.610,-23.0971,4.6300,4.8100,11.9000,-123.6875,39.1875,-114.8125,40.3750,8.5625,-9.3750,1.0800,1.1900,2.9300,4.5700,3.6900,7.8400,3,3,3,3,1,1
7905,2628,90407185,27.875,-9.875,117.099,122.750,-0.363,-1.553,-1.165,99999.76,36.22,-79.467,-80.586,-25.3559,6.0600,4.2000,14.4400,-306.9375,-37.3750,0.0000,36.7500,19.3750,0.5625,2.3200,4.4300,4.6000,4.0600,0.3400,8.9100,3,3,3,3,1,1
7917,2632,90528688,32.250,45.500,121.032,120.938,-0.467,-1.609,0.071,100000.41,36.21,-79.597,-80.641,-8.8609,4.5000,-1.0000,4.4500,-235.2500,-71.0625,109.1875,37.0625,12.0000,13.6875,-0.9700,5.6700,-2.2300,4.6400,-6.5900,5.5700,3,3,3,3,1,1
7929,2636,90648889,6.000,55.750,-152.818,255.312,-0.407,-0.647,-0.391,99989.02,36.21,-79.644,-79.805,-12.7581,1.2500,-1.1500,7.2400,133.5625,-99.1875,506.5000,39.3750,-1.7500,10.7500,-1.1700,6.2600,3.7700,0.3400,-8.4900,4.8900,3,3,3,3,1,1
7941,2640,90769248,-15.688,16.500,-54.792,15.375,-0.340,-0.501,0.206,99987.28,36.21,-79.654,-80.475,-26.5994,-9.7500,-3.4600,14.2200,169.3750,-329.2500,393.0000,15.2500,-37.2500,7.0625,-4.1800,-0.4600,3.9300,-3.3100,-3.2700,8.6200,3,3,3,3,1,1
7954,2644,90899509,9.062,4.688,-14.373,352.062,-0.530,-0.785,-1.867,99990.66,36.19,-79.787,-80.774,-19.0880,-1.4300,1.8900,9.0100,93.8125,-174.1250,138.8125,0.7500,-40.2500,14.0000,-3.8200,4.1600,-0.9300,0.8600,-1.5200,9.6400,3,3,3,3,1,1
7966,2648,91018942,10.875,1.750,-13.488,344.875,-0.342,-0.163,1.022,99983.29,36.20,-79.879,-81.230,-19.2542,0.3200,3.4600,8.9700,-12.9375,112.1250,52.5000,-3.5625,-33.1875,23.0000,-1.3200,2.8300,-0.3800,1.1800,-1.0100,9.6800,3,3,3,3,1,1
7978,2652,91139447,5.625,9.875,-21.348,329.250,-0.062,0.495,2.635,99975.48,36.21,-79.974,-81.687,-19.2293,-2.6000,-0.5500,9.2100,-222.6250,-140.2500,152.5625,-10.6875,-32.8750,17.6875,1.5100,-1.3200,3.4000,0.2700,-2.3900,9.5000,3,3,3,3,1,1
7990,2656,91259138,-0.312,11.562,-33.342,319.688,-0.269,-0.616,-1.551,99988.65,36.20,-80.161,-82.243,-27.7285,-1.2600,-4.6800,18.0100,0.3125,61.4375,44.8125,-18.5000,-32.0625,12.0000,-2.5800,-1.3700,5.7000,-0.7400,-2.6700,9.4000,3,3,3,3,1,1
8002,2660,91379559,7.500,12.312,-34.980,327.812,-0.536,-0.344,-2.517,99985.42,36.22,-80.471,-82.721,-18.7938,-2.0100,-1.7800,9.0700,9.8750,47.1250,1.5000,-20.2500,-32.5000,12.0000,-0.6000,1.0100,0.0300,0.6000,-2.7900,9.3800,3,3,3,3,1,1
8014,2664,91499752,6.500,7.750,-31.154,334.125,-0.441,-0.152,0.914,99983.15,36.21,-80.713,-83.023,-18.5283,1.0400,-2.6200,9.3000,63.6875,40.4375,-85.3750,-18.5000,-33.2500,10.3750,-0.8100,-0.7800,0.3500,0.4300,-2.0400,9.5800,3,3,3,3,1,1
8026,2668,91619169,4.312,5.438,-24.924,340.125,-0.470,-1.192,0.683,99995.48,36.21,-80.944,-83.355,-17.4518,-0.7800,-1.1000,7.7100,48.6250,5.5625,-60.7500,-13.7500,-35.5000,14.0000,-1.0400,0.6400,-2.4600,0.0500,-1.6500,9.6600,3,3,3,3,1,1
8038,2672,91739703,4.125,1.250,-20.882,340.750,-0.426,-0.883,0.013,99991.81,36.22,-81.224,-83.839,-19.5561,0.0700,0.1200,9.7700,0.3125,0.0625,0.1250,-11.8750,-35.0625,18.5000,-0.0100,1.1400,0.0400,0.0200,-0.9400,9.7600,3,3,3,3,1,1
8050,2676,91858152,4.125,-2.438,-19.737,340.688,-0.364,-0.126,-0.137,99982.84,36.23,-81.522,-84.223,-19.5855,0.0200,0.1700,9.8000,0.0625,0.0000,-0.0625,-12.2500,-34.0000,16.5000,0.0000,0.4900,0.0000,0.0200,-0.2800,9.8000,3,3,3,3,1,1
8059,2679,91958227,4.125,-3.625,-19.451,340.750,-0.255,-0.113,1.060,99982.69,36.20,-81.738,-84.532,-19.5958,0.0200,0.1800,9.8200,0.0000,0.0000,-0.0625,-10.7500,-34.3750,17.6875,0.0000,0.2900,0.0200,0.0200,-0.1000,9.8000,3,3,3,3,1,1
8071,2683,92079947,4.125,-4.125,-19.307,340.750,-0.094,-0.047,1.679,99981.91,36.21,-81.988,-84.897,-19.6016,0.0200,0.2000,9.8300,0.0000,0.0625,0.0000,-11.1875,-33.5625,16.5000,0.0000,0.1900,0.0000,0.0200,-0.0200,9.8000,3,3,3,3,1,1
8083,2687,92200117,4.125,-4.250,-19.411,340.375,-0.059,0.427,-0.304,99976.28,36.22,-82.281,-85.256,-19.4960,-0.0700,0.0900,9.7400,-0.0625,0.3125,-0.2500,-11.5625,-34.0000,17.2500,0.0800,0.2800,0.0200,0.0200,0.0000,9.8000,3,3,3,3,1,1
8095,2691,92319992,4.125,-4.312,-19.524,340.438,-0.071,-0.169,-0.214,99983.35,36.23,-82.561,-85.604,-19.5467,0.0200,0.1600,9.7800,0.0625,0.0000,0.0625,-11.5625,-34.3750,17.6875,-0.0100,0.1600,-0.0200,0.0200,0.0100,9.8000,3,3,3,3,1,1
8107,2695,92440467,4.125,-4.375,-19.552,340.438,-0.213,-1.293,-0.328,99996.68,36.22,-82.857,-85.949,-19.5572,0.0000,0.2000,9.7900,-0.1250,-0.1250,0.1875,-12.2500,-33.2500,16.8750,0.0000,0.1200,0.0000,0.0200,0.0200,9.8000,3,3,3,3,1,1
8117,2698,92540594,4.125,-4.438,-19.559,340.438,-0.248,-0.306,-1.358,99984.98,36.23,-83.158,-86.239,-19.5564,0.0100,0.1900,9.7900,0.0625,0.0000,0.0000,-12.6875,-33.5625,16.8750,-0.0100,0.1900,-0.0300,0.0200,0.0300,9.8000,3,3,3,3,1,1
8128,2702,92650771,4.125,-4.438,-19.583,340.375,-0.275,-0.197,-0.834,99983.68,36.22,-83.464,-86.548,-19.5672,0.0300,0.1800,9.8000,0.0625,0.0625,-0.0625,-13.0625,-34.3750,17.6875,0.0000,0.1500,-0.0100,0.0200,0.0400,9.8000,3,3,3,3,1,1
8140,2706,92770171,4.125,-4.500,-19.649,340.250,-0.498,-0.586,-1.589,99988.29,36.23,-83.834,-86.881,-19.5648,0.0100,0.1800,9.8000,0.0625,0.0000,0.0625,-12.6875,-33.5625,17.2500,0.0000,0.1500,0.0100,0.0200,0.0400,9.8000,3,3,3,3,1,1
8152,2710,92900872,4.125,-4.562,-19.704,340.312,-0.309,-1.085,2.853,99994.21,36.22,-84.129,-87.216,-19.5632,0.0000,0.1800,9.8000,0.0625,0.0000,-0.1250,-11.5625,-34.7500,16.8750,0.0200,0.1300,0.0000,0.0200,0.0500,9.8000,3,3,3,3,1,1
8164,2714,93020274,4.125,-4.625,-19.692,340.312,-0.329,-0.409,-1.167,99986.20,36.23,-84.480,-87.530,-19.5243,0.0300,0.1700,9.7600,0.0000,0.0000,-0.1250,-11.8750,-34.7500,16.5000,0.0100,0.1100,-0.0100,0.0200,0.0600,9.8000,3,3,3,3,1,1
8176,2718,93140831,4.125,-4.625,-19.689,340.312,-0.356,0.830,-2.278,99971.52,36.23,-84.858,-87.845,-19.5754,0.0300,0.1900,9.8100,-0.0625,0.0000,-0.0625,-12.2500,-34.0000,17.2500,0.0000,0.0900,-0.0200,0.0200,0.0700,9.8000,3,3,3,3,1,1
8188,2722,93260761,4.125,-4.625,-19.688,340.312,-0.541,-0.757,0.547,99990.32,36.22,-85.172,-88.137,-19.5340,0.0100,0.1900,9.7700,-0.1250,0.0000,0.1250,-13.0625,-33.2500,17.2500,-0.0200,0.1300,-0.0200,0.0200,0.0700,9.8000,3,3,3,3,1,1
8200,2726,93380939,4.125,-4.625,-19.688,340.312,-0.912,-2.099,-1.993,100006.23,36.24,-85.558,-88.438,-19.5332,0.0000,0.1900,9.7700,-0.1250,0.0000,0.1250,-10.7500,-34.3750,16.5000,0.0100,0.1000,0.0000,0.0200,0.0700,9.8000,3,3,3,3,1,1
8212,2730,93501634,4.125,-4.625,-19.688,340.312,-0.390,1.114,1.206,99968.15,36.24,-85.890,-88.722,-19.5547,0.0200,0.1900,9.7900,-0.1875,-0.0625,0.1875,-12.2500,-33.5625,17.6875,0.0000,0.0900,0.0000,0.0200,0.0700,9.8000,3,3,3,3,1,1
8224,2734,93621016,4.125,-4.625,-19.688,340.312,-0.465,-0.146,0.761,99983.08,36.23,-86.176,-88.989,-19.5440,0.0100,0.1900,9.7800,-0.0625,-0.0625,0.0000,-11.8750,-34.3750,17.2500,0.0000,0.1100,-0.0200,0.0200,0.0700,9.8000,3,3,3,3,1,1
8236,2738,93741589,4.125,-4.625,-19.688,340.312,-0.570,-1.527,-0.041,99999.45,36.23,-86.468,-89.251,-19.5264,0.0300,0.2000,9.7600,0.1250,-0.0625,-0.1250,-11.8750,-34.0000,16.8750,0.0000,0.1000,-0.0100,0.0200,0.0700,9.8000,3,3,3,3,1,1
8248,2742,93860944,4.125,-4.625,-19.688,340.312,-0.461,-0.369,1.093,99985.73,36.24,-86.776,-89.509,-19.5731,0.0100,0.1800,9.8100,-0.0625,-0.0625,0.0625,-11.8750,-33.5625,16.0625,0.0000,0.1200,0.0000,0.0200,0.0700,9.8000,3,3,3,3,1,1
8256,2745,93960767,4.125,-4.625,-19.688,340.312,-0.295,-0.558,1.193,99987.96,36.22,-86.969,-89.707,-19.5732,0.0200,0.1700,9.8100,0.0000,0.1875,-0.1250,-11.8750,-34.3750,17.6875,0.0100,0.1100,-0.0100,0.0200,0.0700,9.8000,3,3,3,3,1,1
8268,2749,94081689,4.125,-4.625,-19.688,340.312,-0.402,-0.071,-1.442,99982.20,36.23,-87.294,-89.960,-19.5425,0.0100,0.1700,9.7800,0.0000,-0.0625,-0.0625,-11.8750,-34.0000,16.5000,0.0000,0.1200,-0.0100,0.0200,0.0700,9.8000,3,3,3,3,1,1
8280,2753,94201965,4.125,-4.625,-19.688,340.312,-0.445,-0.959,0.669,99992.71,36.23,-87.559,-90.193,-19.5525,0.0100,0.1700,9.7900,-0.0625,-0.1250,0.1875,-11.8750,-34.3750,16.8750,0.0100,0.1100,-0.0100,0.0200,0.0700,9.8000,3,3,3,3,1,1
8292,2757,94321801,4.125,-4.625,-19.688,340.312,-0.498,-0.919,0.464,99992.24,36.25,-87.843,-90.425,-19.5631,0.0100,0.1800,9.8000,0.0000,0.0000,0.0625,-11.5625,-33.5625,16.5000,0.0100,0.1000,0.0200,0.0200,0.0700,9.8000,3,3,3,3,1,1
8304,2761,94441830,4.125,-4.625,-19.688,340.312,-0.432,0.779,-0.369,99972.12,36.24,-88.162,-90.658,-19.5547,0.0200,0.1900,9.7900,0.0000,-0.0625,-0.0625,-13.3750,-34.7500,18.0625,-0.0100,0.0900,0.0100,0.0200,0.0700,9.8000,3,3,3,3,1,1
8316,2765,94561882,4.125,-4.625,-19.688,340.312,-0.404,-0.271,0.988,99984.56,36.24,-88.388,-90.868,-19.5526,0.0200,0.1600,9.7900,0.0000,0.1875,0.0625,-11.8750,-34.3750,16.8750,0.0000,0.0900,-0.0100,0.0200,0.0700,9.8000,3,3,3,3,1,1
8328,2769,94681941,4.125,-4.625,-19.688,340.312,-0.438,-1.293,1.007,99996.68,36.25,-88.617,-91.073,-19.5533,0.0200,0.1700,9.7900,0.0000,0.1250,-0.0625,-11.1875,-33.5625,16.8750,-0.0100,0.0900,-0.0300,0.0200,0.0700,9.8000,3,3,3,3,1,1
8338,2772,94782435,4.125,-4.625,-19.688,340.312,-0.297,-0.783,0.807,99990.63,36.24,-88.807,-91.240,-19.5817,0.0200,0.1500,9.8200,0.0000,0.0000,-0.0625,-11.5625,-32.8750,17.2500,-0.0100,0.1200,-0.0100,0.0200,0.0700,9.8000,3,3,3,3,1,1
8351,2776,94911932,4.062,-4.688,-19.517,341.062,-0.341,0.457,-2.085,99975.93,36.22,-89.118,-91.472,-19.9056,1.1000,3.2100,9.8400,1.5625,-2.1875,-17.5625,-11.8750,-34.0000,16.8750,0.6100,3.0000,-0.2500,0.0100,0.0700,9.8000,3,3,3,3,1,1
8363,2780,95032584,4.062,-4.688,-16.965,345.312,0.048,-0.679,4.289,99989.41,36.23,-89.207,-91.636,-19.3559,-0.3900,-0.8800,9.7000,0.7500,0.9375,-21.4375,-9.6875,-35.5000,17.6875,-1.0000,-0.7300,0.2400,0.0100,0.0700,9.8000,3,3,3,3,1,1
8375,2784,95152890,4.000,-4.562,-14.623,347.125,-0.385,-0.749,-4.101,99990.22,36.24,-89.525,-91.847,-20.0409,2.5200,0.2900,10.0700,-0.6250,11.8750,-41.2500,-9.0000,-36.2500,18.5000,1.9800,1.1800,0.6700,0.0000,0.0500,9.8000,3,3,3,3,1,1
8387,2788,95272286,4.000,-4.125,-12.133,349.812,-0.240,-0.242,0.404,99984.21,36.25,-89.737,-92.029,-20.1041,0.4300,-0.3100,10.3400,-11.2500,-30.1875,-21.9375,-7.0625,-35.5000,17.6875,1.9600,0.5500,-0.1800,0.0000,-0.0200,9.8000,3,3,3,3,1,1
8399,2792,95392795,4.000,-4.875,-10.011,351.625,-0.310,-1.254,1.289,99996.21,36.25,-89.928,-92.197,-19.2131,-0.8700,-2.0300,9.6800,2.1875,-2.4375,-15.6875,-6.7500,-36.2500,18.0625,-1.5500,-2.0400,0.0100,0.0000,0.1000,9.8000,3,3,3,3,1,1
8411,2796,95512805,4.000,-4.875,-8.253,352.562,-0.642,-1.307,-3.383,99996.84,36.25,-90.233,-92.377,-19.5593,0.0600,0.2400,9.7900,0.0000,-0.1250,0.7500,-4.8750,-34.7500,17.6875,0.0100,0.1100,-0.0100,0.0000,0.1100,9.8000,3,3,3,3,1,1
8423,2800,95632949,4.000,-4.875,-7.691,352.562,-0.657,-0.858,-0.015,99991.52,36.25,-90.486,-92.551,-19.5574,0.0300,0.2500,9.7900,-0.0625,-0.1250,-0.1250,-4.0625,-36.5625,17.2500,0.0300,0.1000,-0.0200,0.0000,0.1100,9.8000,3,3,3,3,1,1
8435,2804,95753139,4.000,-4.875,-7.509,352.562,-0.673,-1.553,1.174,99999.76,36.25,-90.693,-92.710,-19.5262,0.0300,0.2300,9.7600,0.0625,0.0000,0.0000,-5.2500,-35.0625,17.6875,0.0300,0.0900,0.0100,0.0000,0.1100,9.8000,3,3,3,3,1,1
8448,2808,95883072,4.000,-4.875,-7.534,352.500,-0.462,0.129,0.762,99979.82,36.25,-90.932,-92.883,-19.5438,0.0200,0.2100,9.7800,-0.1250,-0.0625,0.0625,-3.7500,-36.5625,18.0625,0.0300,0.1100,-0.0300,0.0000,0.1100,9.8000,3,3,3,3,1,1
8460,2812,96003635,4.000,-4.875,-7.471,352.562,-0.542,0.350,-0.865,99977.20,36.23,-91.170,-93.042,-19.5451,0.0100,0.2400,9.7800,0.0000,-0.1250,0.0000,-4.0625,-35.5000,18.5000,0.0200,0.1100,-0.0100,0.0000,0.1100,9.8000,3,3,3,3,1,1
8472,2816,96123042,4.000,-4.875,-7.490,352.500,-0.342,1.027,0.555,99969.18,36.24,-91.346,-93.183,-19.5622,0.0100,0.2000,9.8000,0.0000,0.0625,0.0000,-4.8750,-36.5625,18.5000,0.0600,0.1200,-0.0100,0.0000,0.1100,9.8000,3,3,3,3,1,1
8484,2820,96243587,4.000,-4.875,-7.514,352.438,-0.630,-2.149,1.159,100006.82,36.25,-91.490,-93.316,-19.5569,0.0400,0.2300,9.7900,0.1250,0.1250,0.0000,-5.5625,-35.5000,19.2500,0.0300,0.0900,-0.0100,0.0000,0.1100,9.8000,3,3,3,3,1,1
8496,2824,96362415,4.000,-4.875,-7.534,352.438,-0.520,0.110,-0.647,99980.05,36.26,-91.724,-93.463,-19.5414,0.0000,0.2000,9.7800,-0.1250,0.0000,0.0000,-5.2500,-36.2500,17.6875,0.0000,0.1000,0.0000,0.0000,0.1100,9.8000,3,3,3,3,1,1
8508,2828,96483701,4.000,-4.875,-7.554,352.438,-0.814,-1.367,-0.650,99997.55,36.25,-91.933,-93.604,-19.5752,0.0300,0.2200,9.8100,0.0625,0.0000,0.0000,-4.8750,-35.8750,18.8750,0.0400,0.1200,-0.0400,0.0000,0.1100,9.8000,3,3,3,3,1,1
8520,2832,96604007,4.000,-4.875,-7.566,352.375,-0.376,1.148,0.826,99967.74,36.25,-92.107,-93.732,-19.5781,0.0400,0.2500,9.8100,0.1250,-0.8750,0.9375,-5.2500,-35.5000,18.0625,0.0100,0.0900,-0.0100,0.0100,0.1100,9.8000,3,3,3,3,1,1
8532,2836,96723833,4.250,-4.938,-7.620,352.688,-0.518,-0.995,0.015,99993.15,36.27,-92.238,-93.848,-19.4758,-2.0900,0.0400,9.9100,0.1875,-5.1875,-12.5000,-6.0000,-35.0625,18.0625,-1.4700,0.0200,0.1000,0.0400,0.1100,9.8000,3,3,3,3,1,1
8544,2840,96843933,9.062,-4.375,-7.652,352.312,-0.735,-0.695,-1.763,99989.59,36.27,-92.469,-93.999,-19.5637,0.4500,0.0900,9.8600,-1.0625,-66.3750,-5.1250,-5.2500,-35.5000,19.2500,0.3800,-0.4100,0.0000,0.8700,0.0200,9.7600,3,3,3,3,1,1
8553,2843,96943949,19.625,-4.562,-8.009,351.625,-0.592,-0.411,0.192,99986.22,36.24,-92.587,-94.059,-18.5094,2.2900,0.3500,8.9500,1.3750,-136.6250,0.0000,-2.6875,-36.5625,18.0625,0.1600,0.6500,-0.6800,2.6400,0.0500,9.4400,3,3,3,3,1,1
8565,2847,97063549,32.438,-4.562,-8.915,350.438,-0.354,0.098,1.958,99980.19,36.25,-92.684,-93.986,-17.1782,4.4200,-0.5600,8.7000,-0.1250,-134.8750,1.8750,1.0625,-35.0625,17.6875,-0.2200,-0.8600,-0.0800,4.9100,0.0500,8.4800,3,3,3,3,1,1
8577,2851,97184439,67.438,-5.312,36.137,77.125,-0.205,-0.492,1.453,99987.18,36.26,-92.698,-93.424,-12.7340,8.1600,0.4300,4.6500,12.6250,-181.3750,3.8750,9.1875,-35.8750,15.2500,0.5400,1.5400,0.2200,8.7700,0.0800,4.3700,3,3,3,3,1,1
8589,2855,97304778,91.375,-4.938,65.911,77.938,-0.536,-1.578,-1.541,100000.05,36.26,-92.715,-92.618,-11.0826,10.0600,0.4000,-0.4900,-11.6875,-175.8750,-2.4375,13.2500,-35.0625,10.3750,-0.2100,-0.0400,-1.1700,9.7900,0.1200,0.4200,3,3,3,3,1,1
8601,2859,97424184,93.250,-4.938,76.642,82.438,-0.410,0.222,-1.115,99978.72,36.26,-92.649,-91.699,-12.8328,9.5300,2.1700,-0.8400,-13.5000,-1.7500,1.1875,16.2500,-35.5000,3.3750,-0.0800,0.7200,-0.2800,9.8000,0.1100,0.0300,3,3,3,3,1,1
8613,2863,97544713,93.125,-5.000,81.064,82.812,-0.200,-0.020,2.350,99981.59,36.27,-92.376,-90.762,-11.3780,6.7100,1.0600,1.2500,8.5000,1.8750,-0.8125,15.5000,-37.0000,3.7500,1.7600,0.3600,-1.4400,9.8000,0.1200,0.0500,3,3,3,3,1,1
8625,2867,97663138,93.188,-4.938,82.695,83.500,-0.248,-0.703,0.773,99989.68,36.26,-92.063,-89.859,-11.0824,9.8200,0.4300,-0.0500,-2.3750,-3.5625,2.0000,15.8750,-36.2500,2.5000,0.0200,0.3100,-0.0900,9.8000,0.1200,0.0300,3,3,3,3,1,1
8637,2871,97784825,93.250,-4.938,83.901,84.562,-0.591,-1.138,-2.932,99994.83,36.26,-91.777,-88.951,-11.0497,9.8300,0.3900,-0.1600,-0.0625,0.4375,-0.1250,15.0625,-35.5000,3.0000,-0.0400,0.3400,-0.0700,9.8000,0.1200,0.0300,3,3,3,3,1,1
8647,2874,97885022,93.188,-5.000,84.436,84.875,-0.639,-0.103,-2.228,99982.57,36.26,-91.505,-88.212,-10.9038,9.7600,0.2400,-0.1400,0.3750,2.2500,-1.0625,16.2500,-36.2500,2.1875,-0.1200,0.1500,-0.0300,9.8000,0.1300,0.0200,3,3,3,3,1,1
8659,2878,98005137,93.125,-5.062,84.840,85.062,-0.662,-1.117,1.175,99994.59,36.24,-91.042,-87.320,-10.9951,9.8000,0.3200,-0.1000,-0.0625,0.8125,-0.2500,15.0625,-37.0000,3.3750,-0.1000,0.0600,-0.2100,9.8000,0.1400,0.0300,3,3,3,3,1,1
8671,2882,98124915,93.062,-5.125,85.109,85.438,-0.552,-0.026,-0.407,99981.66,36.25,-90.569,-86.448,-10.9261,9.7300,0.2500,-0.0300,-2.6250,-0.3125,0.0625,16.2500,-36.2500,2.1875,-0.0700,0.1100,-0.0900,9.8000,0.1500,0.0200,3,3,3,3,1,1
8683,2886,98244949,93.062,-5.125,85.392,85.562,-0.567,-0.550,0.972,99987.86,36.27,-90.018,-85.572,-10.7879,9.7000,0.1100,-0.1000,-3.1875,-0.3750,0.1875,16.2500,-37.0000,3.7500,-0.0700,0.0000,-0.2300,9.8000,0.1500,0.0100,3,3,3,3,1,1
8695,2890,98364214,93.000,-5.188,85.749,86.000,-0.532,0.440,-1.082,99976.13,36.25,-89.484,-84.744,-10.9497,9.7300,0.2600,-0.0900,-1.1250,-1.5000,0.5625,14.7500,-36.2500,3.0000,-0.1100,0.1200,-0.0500,9.8000,0.1600,0.0200,3,3,3,3,1,1
8707,2894,98485566,92.938,-5.188,85.986,86.125,-0.919,-0.838,-2.806,99991.29,36.26,-88.943,-83.914,-10.9780,9.6500,0.3000,-0.0100,0.0625,0.1875,-0.0625,15.0625,-36.2500,2.5000,-0.1300,0.0900,-0.0500,9.8000,0.1700,0.0100,3,3,3,3,1,1
8719,2898,98605772,92.938,-5.250,86.129,86.250,-0.888,-0.411,-0.255,99986.22,36.25,-88.360,-83.104,-10.9553,9.7000,0.2600,-0.0500,0.0000,0.2500,0.0000,15.8750,-36.2500,1.6875,-0.1000,0.0900,-0.0500,9.8000,0.1700,0.0100,3,3,3,3,1,1
8731,2902,98725201,92.875,-5.250,86.288,86.375,-0.546,-0.230,2.842,99984.08,36.27,-87.657,-82.293,-10.9485,9.7400,0.2500,-0.0400,0.0000,0.0625,-0.0625,15.5000,-36.5625,2.5000,-0.0600,0.1000,-0.0500,9.8000,0.1800,0.0100,3,3,3,3,1,1
8743,2906,98845702,92.875,-5.312,86.350,86.375,-0.579,-0.994,0.388,99993.13,36.27,-86.966,-81.500,-11.0050,9.7100,0.3000,-0.0200,-0.0625,-0.6250,0.2500,15.5000,-36.5625,3.0000,-0.0400,0.0800,-0.0500,9.8000,0.1800,0.0000,3,3,3,3,1,1
8753,2909,98945796,92.875,-183.125,86.366,86.375,-0.452,-0.483,0.583,99987.08,36.24,-86.380,-80.695,-9.0203,9.7600,0.2500,-0.1000,-0.1250,-1.0000,0.2500,15.0625,-37.0000,3.0000,-0.0600,0.0800,-0.0700,9.8000,0.1800,0.0000,3,3,2,3,1,1
8765,2913,99065394,92.812,-183.062,86.408,86.438,-0.707,-1.141,-1.543,99994.87,36.26,-85.701,-79.716,-9.0166,9.7100,0.2700,-0.0400,0.0625,1.1875,-0.5000,15.5000,-36.2500,1.6875,-0.0600,0.0800,-0.0700,9.8000,0.1900,0.0000,3,3,2,3,1,1
8777,2917,99185952,92.812,-183.062,86.470,86.500,-0.520,-0.759,1.632,99990.35,36.26,-84.918,-78.734,-9.0356,9.7200,0.2500,-0.0500,-0.1250,0.3125,-0.0625,16.2500,-37.0000,3.3750,-0.0600,0.0900,-0.0800,9.8000,0.1900,0.0000,3,3,2,3,1,1
8789,2921,99306136,92.812,-183.062,86.491,86.500,-0.684,-1.353,-0.464,99997.38,36.26,-84.158,-77.782,-9.0335,9.7400,0.2500,-0.0700,-0.0625,-0.2500,0.0000,15.5000,-36.5625,2.5000,-0.0400,0.0700,-0.0700,9.8000,0.1900,-0.0100,3,3,2,3,1,1
8801,2925,99425988,92.812,-183.062,86.498,86.500,-0.540,0.388,0.007,99976.76,36.27,-83.401,-76.856,-9.0330,9.7500,0.2500,-0.0700,-0.0625,-0.6875,0.2500,16.5625,-36.2500,3.0000,-0.0500,0.0600,-0.0300,9.8000,0.1900,-0.0100,3,3,2,3,1,1
8813,2929,99546446,92.812,-183.062,86.499,86.500,-0.414,-0.781,2.332,99990.60,36.28,-82.516,-75.922,-9.0340,9.7400,0.2500,-0.0600,-0.1250,-0.1875,-0.0625,14.7500,-36.5625,1.6875,-0.0400,0.0500,-0.0700,9.8000,0.1900,-0.0100,3,3,2,3,1,1
8825,2933,99665554,92.812,-183.062,86.500,86.500,-0.400,-0.420,0.028,99986.33,36.29,-81.696,-75.032,-9.0251,9.7200,0.2600,-0.0600,0.0625,0.4375,-0.2500,15.5000,-36.5625,2.1875,-0.0400,0.0500,-0.0400,9.8000,0.1900,-0.0100,3,3,2,3,1,1
8837,2937,99786590,92.812,-183.062,86.500,86.500,-0.668,-1.500,-1.279,99999.13,36.28,-80.892,-74.156,-9.0300,9.7700,0.2500,-0.1100,0.1250,0.8750,-0.3750,15.8750,-36.2500,4.1875,-0.0700,0.0500,-0.0600,9.8000,0.1900,-0.0100,3,3,2,3,1,1
8847,2940,99886813,92.812,-183.062,86.528,86.625,-0.502,-0.862,-0.279,99991.57,36.27,-80.174,-73.434,-9.0370,9.7200,0.2500,-0.0200,-1.8750,-0.1875,0.1250,16.2500,-37.3750,2.5000,-0.0400,0.0500,-0.0600,9.8000,0.1900,-0.0100,3,3,3,3,1,1
8859,2944,100006870,92.812,-183.062,86.598,86.625,-0.549,-1.073,0.246,99994.06,36.25,-79.351,-72.596,-9.0335,9.7500,0.2500,-0.0600,0.0000,0.2500,-0.1250,15.8750,-37.0000,2.1875,-0.0600,0.0800,-0.0500,9.8000,0.1900,-0.0100,3,3,3,3,1,1
8871,2948,100126815,92.812,-183.062,86.617,86.625,-0.687,-0.959,-1.665,99992.71,36.26,-78.571,-71.788,-9.0345,9.7500,0.2500,-0.0400,0.0625,0.1875,-0.1250,15.0625,-37.0000,2.1875,-0.0400,0.0500,-0.0300,9.8000,0.1900,0.0000,3,3,3,3,1,1
8883,2952,100246804,92.812,-5.375,86.594,86.562,-0.651,-1.479,0.611,99998.88,36.26,-77.742,-71.160,-10.9521,9.7400,0.2300,-0.0900,0.4375,0.3750,0.0625,15.8750,-35.8750,2.1875,-0.0200,0.0600,-0.0700,9.8000,0.1900,0.0000,3,3,3,3,1,1
8895,2956,100366302,92.750,-5.375,86.630,86.750,-0.307,0.471,1.828,99975.77,36.27,-76.937,-70.617,-11.0858,9.8700,0.3700,0.2800,-3.2500,-0.7500,-0.0625,15.8750,-35.8750,2.1875,-0.2300,0.1300,0.3900,9.8000,0.2000,0.0100,3,3,3,3,1,1
8907,2960,100486948,92.750,-5.438,86.761,86.812,-0.210,-0.373,1.041,99985.77,36.27,-76.107,-70.077,-11.0028,9.7700,0.2700,-0.0400,-0.0625,0.0000,-0.0625,16.5625,-36.2500,3.0000,0.0000,0.0700,-0.1000,9.8000,0.2000,0.0100,3,3,3,3,1,1
8919,2964,100607140,91.688,-5.500,86.836,86.875,-0.230,-0.498,0.680,99987.26,36.27,-75.343,-69.572,-11.3026,10.2400,0.5200,0.1000,-0.2500,37.4375,0.0625,15.8750,-36.2500,1.6875,0.5100,0.3000,-0.1700,9.7900,0.2100,0.3300,3,3,3,3,1,1
8931,2968,100727040,80.812,-9.625,87.562,88.562,-0.517,-0.419,-1.716,99986.31,36.27,-74.697,-69.158,-11.0978,9.1100,-0.5700,2.0500,-17.6250,133.7500,-3.0000,14.7500,-36.5625,4.1875,-0.0200,-0.2200,-0.3100,9.5400,0.2100,2.2200,3,3,3,3,1,1
8943,2972,100847558,64.562,-6.625,88.324,88.625,-0.109,0.361,2.904,99977.07,36.27,-73.947,-68.826,-13.6538,7.9700,1.1900,4.3600,-1.5000,149.8125,-0.5625,14.0625,-36.5625,8.2500,-0.7400,0.2400,0.2300,8.5400,0.2000,4.8100,3,3,3,3,1,1
8953,2975,100947593,51.938,-5.938,88.552,88.688,-0.281,-0.262,-0.014,99984.45,36.26,-73.432,-68.730,-14.7288,7.7000,0.5700,6.0000,-3.6875,150.6250,-2.7500,12.1875,-35.8750,11.5625,0.5200,0.7300,-0.2200,7.2800,0.1900,6.5600,3,3,3,3,1,1
8965,2979,101067051,11.000,-4.500,28.940,356.062,-0.072,0.284,0.626,99977.98,36.26,-72.841,-68.910,-19.6599,-0.5600,0.7900,9.9600,-17.6250,416.1250,21.2500,8.3750,-35.8750,16.0625,-1.6500,-0.0200,1.1300,1.1900,0.0400,9.7300,3,3,3,3,1,1
8977,2983,101187731,5.000,-5.375,5.005,355.312,-0.039,1.178,-0.140,99967.38,36.27,-72.406,-69.590,-19.4275,0.0300,-0.0300,9.7000,1.6250,-3.7500,9.8125,-4.5000,-36.2500,18.0625,0.8300,0.2100,0.0000,0.1700,0.2000,9.8000,3,3,3,3,1,1
8989,2987,101307987,5.062,-5.375,-2.326,354.625,0.002,0.616,1.284,99974.04,36.26,-72.038,-70.183,-19.5705,0.1400,0.2500,9.8100,-0.6250,0.9375,-0.0625,-4.5000,-35.5000,18.0625,-0.0700,0.0500,0.0000,0.1800,0.2000,9.8000,3,3,3,3,1,1
9001,2991,101427850,4.812,-5.375,-4.526,354.438,0.101,-0.546,1.456,99987.82,36.29,-71.738,-70.769,-19.5443,0.0100,0.1700,9.8000,-0.1250,0.0000,0.0000,-4.8750,-35.0625,17.2500,-0.0800,0.0200,0.0000,0.1400,0.1900,9.8000,3,3,3,3,1,1
9013,2995,101547820,4.812,-5.375,-5.444,354.000,-0.063,-1.041,-0.843,99993.69,36.28,-71.615,-71.379,-19.5324,0.0500,0.2200,9.7800,-0.0625,0.0000,0.0000,-5.2500,-36.2500,18.5000,-0.0600,0.0100,0.0300,0.1400,0.1900,9.8000,3,3,3,3,1,1
9025,2999,101667157,4.812,-5.375,-5.920,353.812,-0.038,0.821,-1.631,99971.62,36.28,-71.621,-71.998,-19.5623,0.0700,0.2000,9.8100,0.0625,-0.1875,0.0000,-4.8750,-34.7500,18.0625,-0.0900,0.0200,0.0000,0.1400,0.1900,9.8000,3,3,3,3,1,1
9037,3003,101787948,4.812,-5.375,-6.246,353.562,-0.165,0.242,-0.259,99978.48,36.28,-71.658,-72.614,-19.5496,0.0400,0.2000,9.8000,0.0625,0.1250,-0.1250,-4.8750,-36.2500,18.0625,-0.0800,0.0000,-0.0200,0.1400,0.1900,9.8000,3,3,3,3,1,1
9046,3006,101878066,4.812,-5.375,-6.434,353.312,-0.352,-0.463,-1.568,99986.84,36.29,-71.773,-73.126,-19.5622,0.0600,0.2100,9.8100,-0.0625,-0.1250,-0.0625,-4.8750,-35.5000,18.5000,-0.0800,0.0000,-0.0100,0.1300,0.1900,9.8000,3,3,3,3,1,1
9058,3010,102008654,4.750,-5.375,-6.637,353.250,-0.312,-0.095,-0.695,99982.48,36.28,-71.943,-73.745,-19.5628,0.0500,0.2200,9.8100,0.0625,-0.0625,-0.1250,-4.8750,-36.2500,18.0625,-0.0700,0.0000,0.0000,0.1300,0.1900,9.8000,3,3,3,3,1,1
9070,3014,102128110,4.750,-5.375,-6.747,353.188,-0.317,-0.951,1.061,99992.62,36.28,-72.123,-74.343,-19.5329,0.0400,0.2300,9.7800,0.0625,0.1875,-0.1250,-4.0625,-35.5000,18.5000,-0.0700,0.0000,-0.0100,0.1300,0.1900,9.8000,3,3,3,3,1,1
9082,3018,102248564,0.750,-5.375,-7.057,352.375,-0.035,-0.385,2.707,99985.91,36.28,-72.315,-74.983,-20.3976,0.4200,-0.0700,10.6000,-0.5000,127.5625,7.5000,-5.2500,-35.8750,18.0625,0.0300,-0.2700,0.1400,-0.5600,0.2000,9.7800,3,3,3,3,1,1
9094,3022,102367909,-22.688,-5.625,-8.401,350.500,-0.309,-0.729,-1.743,99989.99,36.29,-72.648,-75.493,-16.9373,-3.5900,0.4800,8.3500,-0.3125,284.3750,14.1875,-6.3750,-35.5000,17.6875,0.9500,0.5300,-0.7100,-4.8300,0.2200,8.5200,3,3,3,3,1,1
9106,3026,102488707,-58.438,-7.188,-57.185,258.438,-0.194,0.258,-0.068,99978.30,36.28,-72.936,-75.322,-10.4336,-8.3700,0.4400,3.9400,-14.7500,271.9375,4.9375,-17.5000,-35.8750,8.2500,-0.3100,0.2000,-0.4500,-8.6900,0.2300,4.5200,3,3,3,3,1,1
9118,3030,102609006,-73.000,-9.438,-89.408,257.812,-0.563,-1.505,-2.070,99999.18,36.30,-73.173,-74.725,-8.6350,-9.7700,0.1400,1.9500,-0.2500,84.5625,0.0625,-19.7500,-36.2500,-0.6875,-0.2100,-0.0700,-0.3300,-9.5500,0.2000,2.1800,3,3,3,3,1,1
9130,3034,102728830,-80.500,-5.375,-99.007,257.062,-0.480,0.539,-0.708,99974.96,36.30,-73.338,-73.986,-9.6321,-8.8600,-0.4800,1.1200,2.5625,77.4375,0.1250,-19.3750,-35.0625,-6.5000,1.2300,-0.9400,-0.3700,-9.7600,0.2000,0.9100,3,3,3,3,1,1
9142,3038,102848847,-83.875,-5.562,-101.264,258.312,-0.551,-0.691,0.430,99989.54,36.30,-73.338,-73.261,-9.5301,-9.4300,-0.6700,-0.2400,9.0000,0.1875,-0.3750,-19.0000,-35.8750,-6.5000,-0.1600,0.3600,-0.2700,-9.8000,0.2200,0.2800,3,3,3,3,1,1
9151,3041,102948948,-83.812,-5.500,-101.468,258.438,-0.741,-0.472,-2.051,99986.95,36.29,-73.357,-72.680,-8.7960,-9.5600,0.1300,0.3200,-0.2500,-2.8750,-1.0000,-19.0000,-35.5000,-6.8750,0.1300,0.0000,-0.1000,-9.7900,0.2100,0.3000,3,3,3,3,1,1
9163,3045,103068158,-83.688,-5.438,-101.693,258.125,-0.690,-0.685,0.312,99989.47,36.28,-73.235,-71.980,-8.8506,-9.4600,0.1100,0.4500,-0.1875,1.1250,0.0000,-19.7500,-36.2500,-6.8750,0.3300,-0.0900,0.1200,-9.7900,0.2100,0.3200,3,3,3,3,1,1
9175,3049,103189446,-83.875,-5.562,-101.907,257.875,-0.272,0.674,2.230,99973.36,36.29,-72.995,-71.261,-8.5307,-9.6200,0.3600,0.1200,0.4375,2.8750,1.1875,-19.3750,-36.2500,-7.2500,-0.3500,0.0100,-0.5100,-9.7900,0.2200,0.2800,3,3,3,3,1,1
9185,3052,103289465,-83.625,-5.438,-101.937,258.062,-0.298,-0.476,2.441,99986.99,36.31,-72.746,-70.663,-8.8072,-9.7600,0.1000,0.2200,0.1875,-0.8750,-0.1250,-19.3750,-36.2500,-6.0625,0.2900,-0.0600,0.0500,-9.7900,0.2000,0.3400,3,3,3,3,1,1
9196,3056,103399584,-83.562,-5.438,-101.937,258.062,-0.162,0.726,-0.131,99972.74,36.30,-72.464,-70.027,-8.8386,-9.5500,0.1100,0.4100,0.0000,-0.2500,0.0625,-20.5000,-36.5625,-6.0625,0.2400,-0.0600,0.0100,-9.7900,0.2000,0.3500,3,3,3,3,1,1
9208,3060,103518207,-83.562,-5.375,-101.909,258.125,-0.379,-0.855,-0.104,99991.48,36.31,-72.112,-69.348,-8.8423,-9.5400,0.1200,0.4300,-0.0625,0.1875,0.0000,-18.5625,-36.2500,-6.5000,0.2500,-0.0700,0.0800,-9.7900,0.2000,0.3500,3,3,3,3,1,1
9220,3064,103639630,-83.562,-5.375,-101.896,258.062,-0.629,-1.181,-2.066,99995.34,36.29,-71.784,-68.677,-8.8402,-9.4800,0.1300,0.4500,-0.0625,0.1250,0.0000,-19.0000,-35.8750,-7.2500,0.2700,-0.0400,0.0500,-9.7900,0.1900,0.3600,3,3,3,3,1,1
9232,3068,103759890,-83.562,-5.375,-101.926,258.062,-0.585,-0.955,-0.108,99992.66,36.30,-71.388,-68.013,-8.8309,-9.5200,0.1300,0.4000,0.0000,-0.0625,0.0625,-19.3750,-36.5625,-6.5000,0.2900,-0.0700,0.0800,-9.7900,0.1900,0.3600,3,3,3,3,1,1
9245,3072,103889815,-83.562,-5.375,-101.955,258.062,-0.473,-0.958,0.545,99992.70,36.30,-70.886,-67.299,-8.8373,-9.5000,0.1300,0.4400,0.0000,-0.0625,0.1250,-19.7500,-36.2500,-5.5625,0.2900,-0.0600,0.0600,-9.7900,0.1900,0.3600,3,3,3,3,1,1
9257,3076,104009987,-83.500,-5.312,-101.921,258.125,-0.416,0.988,-1.239,99969.63,36.28,-70.481,-66.669,-8.8264,-9.5200,0.1500,0.4400,-0.1250,0.0625,-0.0625,-18.5625,-35.0625,-5.1875,0.2900,-0.0600,0.0800,-9.7900,0.1900,0.3700,3,3,3,3,1,1
9269,3080,104129789,-83.500,-5.312,-101.888,258.125,-0.660,-1.552,0.187,99999.75,36.30,-69.984,-66.037,-8.8529,-9.5300,0.1200,0.4200,0.0000,-0.0625,0.0625,-19.7500,-36.2500,-6.5000,0.2600,-0.0400,0.0600,-9.7900,0.1800,0.3700,3,3,3,3,1,1
9281,3084,104249939,-83.500,-5.312,-101.879,258.125,-0.569,-1.538,2.082,99999.58,36.30,-69.472,-65.416,-8.8570,-9.5100,0.1200,0.4400,-0.0625,0.0000,0.0000,-19.7500,-36.2500,-6.5000,0.2800,-0.0400,0.0600,-9.7900,0.1800,0.3700,3,3,3,3,1,1
9293,3088,104369694,-83.500,-5.312,-101.876,258.125,-0.580,-0.889,-0.096,99991.88,36.31,-68.997,-64.818,-8.8579,-9.5000,0.1200,0.4400,0.0625,-0.0625,0.0625,-19.7500,-36.2500,-5.5625,0.2900,-0.0300,0.0700,-9.7900,0.1800,0.3700,3,3,3,3,1,1
9305,3092,104490455,-83.500,-5.312,-101.875,258.125,-0.610,0.234,-1.848,99978.57,36.31,-68.538,-64.233,-8.8271,-9.5000,0.1500,0.4300,-0.0625,0.0000,-0.0625,-19.3750,-35.0625,-6.0625,0.3000,-0.0300,0.0500,-9.7900,0.1800,0.3700,3,3,3,3,1,1
9317,3096,104610757,-83.500,-5.312,-101.875,258.125,-0.610,-1.231,1.085,99995.94,36.31,-67.978,-63.644,-8.8361,-9.5100,0.1400,0.4300,-0.0625,0.1250,0.0625,-19.0000,-36.5625,-6.5000,0.2900,-0.0600,0.0500,-9.7900,0.1800,0.3700,3,3,3,3,1,1
9329,3100,104730182,-83.500,-5.312,-101.875,258.125,-0.434,-1.012,0.827,99993.34,36.31,-67.425,-63.074,-8.8485,-9.5200,0.1300,0.4600,0.0000,-0.0625,0.0625,-19.3750,-36.2500,-6.8750,0.2600,-0.0300,0.0400,-9.7900,0.1800,0.3700,3,3,3,3,1,1
9341,3104,104850583,-83.500,-5.312,-101.875,258.125,-0.284,0.123,0.039,99979.89,36.31,-66.888,-62.515,-8.8341,-9.5200,0.1400,0.4200,0.0625,0.1250,0.0625,-19.0000,-35.5000,-6.8750,0.2800,-0.0600,0.0600,-9.7900,0.1800,0.3700,3,3,3,3,1,1
9350,3107,104950736,-83.500,-5.312,-101.875,258.125,-0.568,-1.159,-0.524,99995.09,36.29,-66.475,-62.070,-8.8370,-9.5000,0.1400,0.4300,0.0625,0.0000,-0.0625,-19.7500,-35.8750,-6.8750,0.2900,-0.0400,0.0500,-9.7900,0.1800,0.3700,3,3,3,3,1,1
9362,3111,105069331,-83.500,-5.312,-101.875,258.125,-0.378,-0.081,1.538,99982.30,36.31,-65.931,-61.541,-8.8460,-9.5100,0.1300,0.4300,0.0000,-0.0625,-0.1250,-18.5625,-35.8750,-8.0625,0.2800,-0.0500,0.0600,-9.7900,0.1800,0.3700,3,3,3,3,1,1
9374,3115,105190830,-83.500,-5.312,-101.875,258.125,-0.578,-1.196,0.286,99995.53,36.32,-65.387,-61.016,-8.8380,-9.4900,0.1400,0.4300,0.0000,0.0625,0.0000,-19.7500,-35.0625,-6.5000,0.2600,-0.0600,0.0600,-9.7900,0.1800,0.3700,3,3,3,3,1,1
9386,3119,105310989,-83.500,-5.312,-101.875,258.125,-0.649,0.538,-2.546,99974.98,36.31,-64.947,-60.528,-8.8314,-9.4900,0.1500,0.4600,0.0000,0.1250,-0.0625,-18.5625,-36.5625,-6.5000,0.2600,-0.0400,0.0600,-9.7900,0.1800,0.3700,3,3,3,3,1,1
9398,3123,105430820,-83.500,-5.312,-101.875,258.125,-0.651,-0.087,-0.043,99982.38,36.32,-64.425,-60.036,-8.8570,-9.5100,0.1200,0.4400,0.1250,0.1875,-0.0625,-19.3750,-35.8750,-6.0625,0.2800,-0.0300,0.0500,-9.7900,0.1800,0.3700,3,3,3,3,1,1
9410,3127,105550949,-83.500,-5.312,-101.875,258.125,-0.832,-1.896,0.469,100003.83,36.33,-63.900,-59.555,-8.8380,-9.4900,0.1400,0.4300,0.0000,-0.0625,-0.0625,-18.2500,-36.5625,-6.5000,0.2800,-0.0300,0.0600,-9.7900,0.1800,0.3700,3,3,3,3,1,1
9422,3131,105670530,-83.500,-5.312,-101.875,258.125,-0.208,0.297,4.348,99977.83,36.33,-63.308,-59.074,-8.8697,-9.4800,0.1100,0.4400,0.0625,-0.0625,-0.0625,-19.0000,-36.5625,-6.5000,0.2900,-0.0500,0.0900,-9.7900,0.1800,0.3700,3,3,3,3,1,1
9434,3135,105791469,-83.500,-5.312,-101.875,258.125,-0.149,0.608,0.260,99974.15,36.33,-62.764,-58.609,-8.8251,-9.5100,0.1500,0.4200,-0.0625,-0.1250,-0.1250,-19.3750,-36.5625,-6.5000,0.2900,-0.0400,0.0600,-9.7900,0.1800,0.3700,3,3,3,3,1,1
9444,3138,105891446,-83.500,-5.312,-101.875,258.125,-0.475,-1.072,-1.730,99994.05,36.32,-62.367,-58.244,-8.8439,-9.5200,0.1300,0.4200,0.0000,-0.1250,0.1875,-19.3750,-35.8750,-6.0625,0.2600,-0.0500,0.0500,-9.7900,0.1800,0.3700,3,3,3,3,1,1
9453,3141,105991563,-83.500,-5.312,-101.875,258.125,-0.404,0.352,-0.803,99977.17,36.30,-61.970,-57.885,-8.8494,-9.5100,0.1300,0.4600,0.0625,-0.1250,0.0625,-19.0000,-36.5625,-5.5625,0.2700,-0.0700,0.0600,-9.7900,0.1800,0.3700,3,3,3,3,1,1
9464,3145,106101562,-83.500,-5.312,-101.875,258.125,-0.577,-0.709,-0.322,99989.75,36.31,-61.537,-57.501,-8.8372,-9.5100,0.1400,0.4400,0.1250,0.1250,-0.0625,-19.3750,-36.5625,-7.2500,0.2800,-0.0600,0.0400,-9.7900,0.1800,0.3700,3,3,3,3,1,1
9476,3149,106220564,-83.500,-5.312,-101.875,258.125,-0.631,-1.051,-0.506,99993.80,36.32,-61.078,-57.096,-8.8464,-9.5300,0.1300,0.4500,0.0000,-0.0625,-0.1250,-18.5625,-35.8750,-5.5625,0.2700,-0.0400,0.0800,-9.7900,0.1800,0.3700,3,3,3,3,1,1
9488,3153,106341701,-83.500,-5.312,-101.875,258.125,-0.822,-1.155,-0.874,99995.04,36.32,-60.658,-56.702,-8.8372,-9.5100,0.1400,0.4400,0.0000,0.0000,0.0000,-19.3750,-35.8750,-6.8750,0.2700,-0.0400,0.0200,-9.7900,0.1800,0.3700,3,3,3,3,1,1
9500,3157,106461900,-83.500,-5.312,-101.875,258.125,-0.424,-0.628,3.036,99988.80,36.33,-60.126,-56.299,-8.8658,-9.5100,0.1100,0.4300,0.0625,-0.0625,0.0625,-20.0625,-37.0000,-6.8750,0.3000,-0.0600,0.0600,-9.7900,0.1800,0.3700,3,3,3,3,1,1
9512,3161,106581827,-83.750,-5.375,-101.904,258.062,-0.572,-0.476,-1.112,99986.98,36.32,-59.711,-55.926,-8.7986,-9.5100,0.1600,0.3800,0.0625,1.3750,0.5000,-19.0000,-36.2500,-5.2500,0.2700,-0.0400,0.0400,-9.7900,0.2000,0.3200,3,3,3,3,1,1
9524,3165,106701830,-83.750,-5.375,-101.928,258.062,-0.269,0.454,2.062,99975.97,36.32,-59.220,-55.544,-8.7033,-9.7100,0.2100,0.1300,0.0625,-0.6250,-0.3125,-19.0000,-35.0625,-6.8750,0.0900,0.0100,-0.1600,-9.7900,0.1900,0.3200,3,3,3,3,1,1
9536,3169,106821555,-83.812,-5.375,-101.909,258.062,-0.138,0.240,2.091,99978.51,36.33,-58.719,-55.174,-8.6781,-9.9000,0.2000,-0.0300,0.1250,8.1250,2.3125,-19.3750,-36.5625,-6.8750,0.2500,0.0000,-0.0200,-9.7900,0.1900,0.3100,3,3,3,3,1,1
9546,3172,106921765,-83.812,-5.375,-101.928,258.062,-0.256,-0.230,-0.675,99984.08,36.30,-58.359,-54.879,-8.7922,-9.4800,0.1700,0.3900,0.3125,-0.1250,-0.1250,-18.2500,-35.8750,-6.8750,0.3100,-0.0400,0.0700,-9.7900,0.2000,0.3000,3,3,3,3,1,1
9558,3176,107042465,-84.062,-5.375,-101.941,258.000,-0.252,0.968,-0.910,99969.88,36.32,-57.961,-54.539,-8.8123,-9.4800,0.1500,0.4100,0.4375,8.5625,0.8125,-19.7500,-36.5625,-6.5000,0.3000,-0.0200,0.0200,-9.8000,0.2000,0.2500,3,3,3,3,1,1
9570,3180,107162771,-84.438,-5.438,-101.983,258.000,-0.457,-1.069,-1.429,99994.02,36.32,-57.533,-54.199,-8.7480,-9.4700,0.1900,0.2800,0.1875,10.4375,0.0000,-18.5625,-35.8750,-6.5000,0.3000,-0.0800,0.1600,-9.8000,0.2000,0.1500,3,3,3,3,1,1
9582,3184,107282175,-84.500,-5.438,-101.995,258.000,-0.500,-0.819,-0.968,99991.05,36.31,-57.160,-53.876,-8.7750,-9.5000,0.1500,0.1800,-0.3750,-12.6875,-0.3750,-19.0000,-36.2500,-6.8750,0.2400,0.0000,0.1400,-9.8000,0.2000,0.1300,3,3,3,3,1,1
9594,3188,107402584,-84.125,-5.375,-102.075,257.875,-0.505,-0.326,0.247,99985.21,36.32,-56.786,-53.564,-8.7968,-9.5400,0.1400,0.2200,-0.2500,-3.8750,-0.5000,-19.0000,-37.0000,-7.6875,0.2400,-0.0500,0.0100,-9.8000,0.1900,0.2400,3,3,3,3,1,1
9606,3192,107521391,-84.000,-5.312,-102.111,257.875,-0.560,-0.275,-1.106,99984.61,36.33,-56.439,-53.270,-8.8287,-9.5200,0.1300,0.3100,0.0625,0.3750,0.1875,-18.2500,-36.2500,-7.2500,0.2700,-0.0400,0.0600,-9.8000,0.1900,0.2700,3,3,3,3,1,1
9618,3196,107642702,-83.938,-5.312,-102.121,257.875,-0.805,-0.557,-2.260,99987.95,36.31,-56.134,-52.988,-8.8103,-9.5200,0.1500,0.3200,-0.0625,-1.3750,0.0000,-19.0000,-36.2500,-6.8750,0.2600,-0.0500,0.0200,-9.8000,0.1900,0.2800,3,3,3,3,1,1
9630,3200,107763018,-83.812,-5.375,-101.900,258.438,-0.638,-0.785,1.471,99990.65,36.32,-55.744,-52.678,-7.7389,-9.9200,1.0700,-0.7400,8.5000,0.3125,0.5000,-19.3750,-36.5625,-6.0625,0.6500,0.1500,-1.8600,-9.7900,0.1900,0.3000,3,3,3,3,1,1
9642,3204,107882823,-83.750,-5.125,-104.410,252.500,-0.514,0.627,0.103,99973.91,36.33,-55.418,-52.421,-8.8949,-10.5400,0.0400,0.6400,-45.8125,1.1250,0.5625,-18.5625,-36.2500,-9.2500,-0.7100,-0.0200,0.1100,-9.7900,0.1500,0.3400,3,3,3,3,1,1
9652,3207,107982968,-83.250,-4.875,-107.920,248.625,-0.510,-0.172,0.512,99983.39,36.33,-55.100,-52.184,-7.6364,-9.7100,1.3700,0.0900,-49.0000,-6.5625,-0.4375,-18.2500,-36.2500,-11.7500,-2.3500,2.0100,3.5400,-9.7900,0.1100,0.4400,3,3,3,3,1,1
9664,3211,108102919,-74.625,-7.812,-109.994,250.688,-0.486,-0.580,0.090,99988.23,36.31,-54.748,-51.962,-8.5910,-9.2500,0.4100,1.6500,44.2500,-92.8125,-5.9375,-19.0000,-34.3750,-11.7500,0.7300,0.3000,-0.4100,-9.6100,0.1200,1.9200,3,3,3,3,1,1
9676,3215,108222487,-65.500,-6.438,-108.035,253.438,-0.612,-0.936,-0.898,99992.45,36.32,-54.454,-51.777,-10.1595,-8.8000,0.1000,3.4700,0.9375,-88.1875,-0.4375,-19.3750,-34.7500,-6.5000,0.3800,-0.0100,0.1300,-9.1300,0.1300,3.5500,3,3,3,3,1,1
9686,3218,108322438,-57.875,-5.875,-107.050,253.500,-0.832,-1.381,-1.434,99997.72,36.33,-54.264,-51.776,-11.1068,-8.7600,0.1300,4.3600,-0.1250,-77.8750,-0.2500,-19.7500,-35.5000,-2.7500,0.1300,0.0000,-0.0900,-8.5800,0.1300,4.7300,3,3,3,3,1,1
9697,3222,108433068,-44.688,-5.375,-106.625,253.625,-0.670,0.324,0.249,99977.51,36.34,-54.056,-51.923,-13.3162,-7.2800,0.1500,6.0700,0.2500,-146.1250,-0.7500,-20.7500,-35.8750,1.6875,0.4100,0.0100,-0.0400,-7.3600,0.1300,6.4700,3,3,3,3,1,1
9709,3226,108553564,-17.875,-4.875,-48.755,341.500,-0.541,-0.506,1.990,99987.34,36.33,-53.811,-52.397,-14.1174,-6.4000,0.8700,5.4000,0.3125,-387.1250,-1.5625,-19.7500,-35.0625,6.6875,-3.2900,0.5900,-4.8000,-3.6500,0.1000,9.0900,3,3,3,3,1,1
9721,3230,108672671,5.438,-4.938,-26.573,342.062,-0.257,0.844,1.204,99971.34,36.34,-53.665,-52.916,-19.7119,0.5100,-0.1800,9.9600,-0.5625,2.9375,7.8125,-12.6875,-34.7500,15.2500,0.0600,-0.0300,0.0200,0.2500,0.1200,9.8000,3,3,3,3,1,1
9733,3234,108793701,5.500,-4.938,-20.296,342.188,-0.367,-0.787,0.663,99990.67,36.35,-53.605,-53.970,-19.5447,0.2000,0.2300,9.7800,-0.0625,0.1875,0.1250,-9.6875,-35.0625,17.6875,-0.1400,0.1000,0.0000,0.2600,0.1200,9.8000,3,3,3,3,1,1
9745,3238,108922336,5.500,-4.938,-18.492,342.250,-0.433,-0.927,-0.324,99992.34,36.33,-53.728,-55.102,-19.5342,0.1000,0.2100,9.7800,-0.4375,1.0625,0.0000,-9.6875,-35.0625,18.5000,-0.1400,0.0900,0.0000,0.2500,0.1200,9.8000,3,3,3,3,1,1
9757,3242,109043820,5.188,-4.875,-17.939,342.250,-0.254,-0.446,1.925,99986.63,36.33,-53.910,-56.157,-19.5581,0.0200,0.1700,9.8100,-0.0625,-0.0625,-0.0625,-11.1875,-34.0000,17.6875,-0.1000,0.1000,-0.0200,0.2000,0.1000,9.8000,3,3,3,3,1,1
9769,3246,109164018,5.125,-4.875,-17.803,342.250,-0.228,-0.506,1.119,99987.34,36.32,-54.188,-57.195,-19.5244,0.0500,0.2000,9.7700,0.0000,0.0625,0.0000,-11.1875,-34.7500,17.2500,-0.1100,0.1000,-0.0100,0.1900,0.1100,9.8000,3,3,3,3,1,1
9781,3250,109283830,5.062,-4.938,-17.736,342.312,-0.301,-1.375,-0.185,99997.65,36.35,-54.554,-58.224,-19.5450,0.0700,0.1900,9.7900,0.0625,0.1250,0.0625,-10.0625,-34.3750,17.2500,-0.1200,0.0900,-0.0200,0.1900,0.1100,9.8000,3,3,3,3,1,1
9793,3254,109403950,5.062,-4.938,-17.701,342.312,-0.221,-0.424,0.268,99986.38,36.33,-55.020,-59.249,-19.5368,0.0700,0.2100,9.7800,0.0625,0.1250,-0.1250,-10.7500,-34.7500,17.2500,-0.0800,0.0700,-0.0100,0.1800,0.1200,9.8000,3,3,3,3,1,1
9805,3258,109523179,5.000,-4.938,-17.435,342.750,-0.198,0.212,-0.168,99978.84,36.32,-55.544,-60.256,-19.4684,-0.1000,0.0400,9.7400,-1.0625,1.8750,-1.9375,-10.0625,-34.7500,17.2500,0.3200,0.2900,0.1100,0.1700,0.1200,9.8000,3,3,3,3,1,1
9817,3262,109644466,5.188,-5.125,-17.112,343.938,-0.348,-0.999,0.397,99993.19,36.34,-56.108,-61.265,-19.4875,-0.6900,-0.0900,9.8300,0.7500,-3.0000,-68.6875,-10.0625,-34.3750,17.6875,-0.1300,0.0100,-0.0200,0.2100,0.1500,9.8000,3,3,3,3,1,1
9829,3266,109764782,5.625,-5.062,-14.370,347.375,-0.880,-1.607,-4.560,100000.40,36.34,-56.863,-62.280,-19.6349,0.1800,0.3900,9.8600,-5.0000,-7.9375,-0.3750,-8.5625,-35.8750,16.5000,-0.1800,0.1300,0.0600,0.2800,0.1400,9.8000,3,3,3,3,1,1
9841,3270,109884183,5.625,-2.312,-13.731,345.938,-0.760,-1.091,0.371,99994.28,36.35,-57.559,-63.282,-19.9587,-0.2800,-1.2100,10.3400,-44.8125,-4.3750,15.8750,-7.8750,-35.5000,17.6875,0.1400,-0.9900,0.4500,0.2800,-0.3300,9.7900,3,3,3,3,1,1
9852,3273,109994581,6.250,8.000,-13.973,346.062,-0.665,-0.175,0.059,99983.42,36.31,-58.249,-64.174,-19.1642,0.0400,-2.4500,9.7800,-138.8750,-4.3125,-8.0000,-9.6875,-36.2500,13.5625,-0.5700,-0.7000,0.0700,0.3800,-2.0800,9.5700,3,3,3,3,1,1
9862,3276,110094702,9.625,24.375,-13.726,346.625,-0.572,0.369,0.053,99976.98,36.32,-58.858,-64.793,-16.4541,0.3600,-4.2600,8.2900,-169.3125,-77.0000,-6.6875,-6.3750,-39.1875,3.0000,-0.2900,0.6000,-0.4900,0.9600,-4.6700,8.5600,3,3,3,3,1,1
9873,3280,110204702,11.938,46.875,29.292,146.812,-0.859,-1.382,-1.336,99997.73,36.34,-59.535,-65.031,-12.5435,0.4400,-6.8000,6.0100,-229.3125,16.5625,-0.4375,-7.8750,-39.1875,-9.0000,-0.9400,0.5200,-1.0400,1.3600,-7.5600,6.0900,3,3,3,3,1,1
9885,3284,110324131,9.125,65.312,116.953,153.750,-0.490,-0.272,1.792,99984.58,36.34,-60.123,-64.924,-9.9813,1.3000,-8.1700,4.6000,-52.1875,6.1250,83.5625,-7.8750,-33.5625,-23.6875,1.4400,1.0100,0.9900,0.7200,-9.1800,3.3400,3,3,3,3,1,1
9897,3288,110445218,4.125,66.500,147.813,161.938,-0.436,0.507,-0.142,99975.34,36.35,-60.665,-64.681,-11.4341,-1.1100,-8.8400,2.1700,16.6250,24.9375,34.3125,-10.7500,-28.0000,-30.1875,-1.9900,0.1400,-1.2400,0.0300,-9.2500,3.2300,3,3,3,3,1,1
9909,3292,110565515,4.688,76.812,155.664,156.000,-0.535,-1.654,1.964,100000.95,36.35,-61.054,-64.466,-9.6208,-0.5600,-7.1400,-2.6300,-245.8750,-33.8750,-22.4375,-11.5625,-27.2500,-29.7500,1.9500,4.6600,-3.5100,0.1200,-9.6800,1.5100,3,3,3,3,1,1
9921,3296,110685347,5.625,93.312,155.721,156.125,-0.503,-1.004,-0.697,99993.24,36.36,-61.432,-64.170,-9.7601,0.1700,-9.3600,-1.2200,-21.3750,17.1250,9.0000,-12.3750,-14.2500,-37.8750,0.9100,0.5100,0.2100,0.2800,-9.7100,-1.2900,3,3,3,3,1,1
9933,3300,110804949,5.062,94.000,157.629,160.125,-0.559,-0.374,-1.373,99985.78,36.34,-61.754,-63.863,-10.2100,-0.2000,-9.4100,-2.1000,16.0000,38.8750,0.7500,-12.3750,-13.1875,-39.5000,-0.5800,0.4200,-0.8600,0.1800,-9.7000,-1.4100,3,3,3,3,1,1
9942,3303,110895485,5.562,90.250,159.247,160.125,-0.604,-1.332,1.058,99997.13,36.36,-61.923,-63.609,-9.6420,0.1700,-9.2500,-0.3300,29.0625,-0.9375,-6.8750,-10.5000,-13.8750,-39.8750,-0.0400,0.4900,0.2900,0.2700,-9.7700,-0.7700,3,3,3,3,1,1
9954,3307,111024276,5.375,85.375,160.646,162.000,-0.607,-0.590,-0.380,99988.34,36.34,-62.124,-63.269,-8.2024,1.5800,-10.0500,0.5800,136.4375,9.6250,7.7500,-9.7500,-15.7500,-37.8750,1.5100,12.4000,-8.5200,0.2500,-9.7900,0.2800,3,3,3,3,1,1
9966,3311,111145565,5.438,84.062,162.592,164.000,-0.374,-1.196,2.814,99995.53,36.35,-62.154,-62.891,-9.6620,0.0900,-9.3000,0.3500,0.8125,-0.1875,0.0000,-9.0000,-19.5000,-37.3750,-0.1200,0.4400,0.0500,0.2400,-9.7900,0.2700,3,3,3,3,1,1
9978,3315,111265784,5.375,84.062,163.602,164.000,-0.548,-1.590,-1.176,100000.20,36.35,-62.231,-62.549,-9.5359,0.2100,-9.3600,0.2800,2.5625,0.6250,0.5625,-9.0000,-19.0625,-36.5625,-0.1200,0.3700,-0.0400,0.2400,-9.7900,0.2800,3,3,3,3,1,1
9990,3319,111385305,5.438,84.125,163.742,163.125,-0.581,-0.421,-1.149,99986.34,36.35,-62.294,-62.230,-9.0309,0.7000,-9.3400,0.1100,0.0625,-36.0000,-0.6250,-9.0000,-19.5000,-37.8750,-0.1100,0.4300,0.2600,0.2500,-9.7900,0.2700,3,3,3,3,1,1
10002,3323,111505713,5.375,83.938,163.401,163.750,-0.477,0.244,0.609,99978.46,36.34,-62.270,-61.874,-9.8752,-0.1000,-9.1800,0.5700,-2.5625,27.0000,-0.3125,-9.0000,-19.0625,-37.3750,-0.6300,0.3700,-0.1000,0.2400,-9.7900,0.3000,3,3,3,3,1,1
10014,3327,111625269,5.375,83.938,164.124,163.625,-0.393,-0.193,0.999,99983.63,36.35,-62.175,-61.602,-11.0716,-1.2200,-9.0100,1.3400,3.1875,-32.1250,-0.5000,-8.0000,-19.5000,-37.3750,0.6300,1.2800,0.7800,0.2300,-9.7900,0.3000,3,3,3,3,1,1
10026,3331,111745820,5.375,83.875,162.324,161.562,-0.614,-1.029,-0.671,99993.55,36.36,-62.099,-61.205,-9.6289,0.1300,-9.3200,0.4200,2.9375,0.5625,0.1250,-9.7500,-18.3750,-37.0625,-0.0800,0.4300,0.0200,0.2400,-9.7900,0.3100,3,3,3,3,1,1
10038,3335,111866099,5.375,84.062,161.854,161.688,-0.598,0.217,-1.414,99978.77,36.35,-62.030,-60.877,-9.6142,0.1300,-9.3900,0.2700,-2.7500,0.3750,0.0625,-10.8750,-19.8750,-37.8750,-0.1200,0.4200,0.0500,0.2300,-9.7900,0.2800,3,3,3,3,1,1
10048,3338,111966127,5.312,84.125,161.830,162.000,-0.742,-1.818,0.889,100002.90,36.33,-61.880,-60.576,-8.5446,1.2200,-9.4200,0.4000,-0.6875,3.5000,0.1250,-9.7500,-19.5000,-37.0625,-0.2400,0.5100,0.0200,0.2300,-9.8000,0.2700,3,3,3,3,1,1
10060,3342,112085948,5.312,84.125,162.463,162.875,-0.382,0.159,1.631,99979.47,36.35,-61.703,-60.249,-9.6114,0.1300,-9.4300,0.2300,-3.3125,-0.4375,0.0625,-10.0625,-19.0625,-37.8750,-0.0800,0.3000,-0.1600,0.2200,-9.8000,0.2700,3,3,3,3,1,1
10072,3346,112206465,5.250,84.125,162.794,162.938,-0.218,1.019,-0.410,99969.27,36.34,-61.500,-59.916,-9.6202,0.1300,-9.3600,0.3000,-0.6250,0.1250,-0.0625,-9.7500,-18.7500,-36.5625,-0.0900,0.3900,-0.0100,0.2200,-9.8000,0.2700,3,3,3,3,1,1
10084,3350,112325219,5.250,84.188,162.989,163.125,-0.335,0.001,0.429,99981.34,36.34,-61.274,-59.591,-9.6038,0.1300,-9.4600,0.1400,0.4375,-0.3125,0.1250,-8.6875,-19.5000,-37.0625,-0.0500,0.4100,0.0100,0.2100,-9.8000,0.2600,3,3,3,3,1,1
10096,3354,112446564,5.250,84.125,163.098,163.188,-0.630,-1.036,-1.889,99993.62,36.36,-61.091,-59.275,-9.5947,0.1600,-9.3400,0.3400,1.1875,0.0000,-0.0625,-9.3750,-18.7500,-37.0625,-0.0700,0.4700,0.0800,0.2100,-9.8000,0.2700,3,3,3,3,1,1
10108,3358,112566888,5.250,84.188,163.162,163.188,-0.167,0.705,2.309,99973.00,36.35,-60.811,-58.951,-9.6111,0.1400,-9.3400,0.3000,1.4375,0.3125,0.0625,-10.0625,-19.5000,-37.0625,-0.0700,0.3900,0.0100,0.2100,-9.8000,0.2600,3,3,3,3,1,1
10120,3362,112686303,5.188,84.188,163.485,163.875,-0.458,-1.520,-0.493,99999.37,36.37,-60.556,-58.645,-9.3862,0.3700,-9.3500,0.3300,-0.0625,2.1250,-1.0000,-9.3750,-19.8750,-36.5625,0.0500,0.3000,-0.1600,0.2100,-9.8000,0.2600,3,3,3,3,1,1
10132,3366,112806706,5.188,84.125,163.805,163.938,-0.450,-0.673,-0.438,99989.33,36.36,-60.337,-58.347,-9.6292,0.1300,-9.2800,0.3700,0.7500,0.2500,0.1250,-9.3750,-19.8750,-37.3750,-0.0600,0.4600,0.0500,0.2000,-9.8000,0.2700,3,3,3,3,1,1
10141,3369,112896838,5.188,84.250,163.886,163.938,-0.318,-0.507,0.608,99987.36,36.35,-60.096,-58.096,-9.6236,0.1100,-9.7800,0.1500,-1.8125,0.4375,0.0625,-9.0000,-19.5000,-37.5000,-0.0600,0.1200,0.0100,0.2000,-9.8000,0.2500,3,3,3,3,1,1
10153,3373,113026435,5.188,84.312,163.956,164.000,-0.452,-0.392,-1.965,99986.00,36.34,-59.876,-57.809,-9.5750,0.1600,-9.7400,0.1500,-1.5625,0.3750,-0.3750,-9.3750,-19.0625,-38.2500,-0.0600,0.2000,0.1100,0.2000,-9.8000,0.2400,3,3,3,3,1,1
10165,3377,113146947,5.312,84.375,163.902,163.812,-0.717,-1.174,-2.316,99995.26,36.36,-59.675,-57.528,-9.3220,0.4200,-9.6000,0.2100,0.8125,0.3125,-0.7500,-9.0000,-18.0000,-37.3750,0.0400,0.2000,0.0700,0.2300,-9.8000,0.2300,3,3,3,3,1,1
10177,3381,113267135,5.125,84.188,163.978,164.062,-0.471,0.327,1.199,99977.47,36.36,-59.423,-57.249,-9.5688,0.1800,-9.6200,0.2800,2.0625,0.0625,0.7500,-9.0000,-18.3750,-37.8750,-0.0500,0.2000,0.1800,0.2000,-9.8000,0.2600,3,3,3,3,1,1
10189,3385,113386946,5.188,84.125,164.039,164.062,-0.430,0.334,0.610,99977.39,36.35,-59.156,-56.974,-9.5526,0.2100,-9.5100,0.4200,1.7500,-0.1875,0.5000,-9.0000,-18.7500,-37.3750,-0.1100,0.1100,0.0300,0.2000,-9.8000,0.2600,3,3,3,3,1,1
10201,3389,113507447,5.125,84.125,164.056,164.062,-0.517,-0.108,-0.368,99982.63,36.36,-58.900,-56.709,-9.5915,0.1400,-9.7500,0.1300,2.2500,-0.3750,-0.0625,-9.0000,-19.5000,-37.5000,-0.0300,0.1500,0.0500,0.2000,-9.8000,0.2700,3,3,3,3,1,1
10211,3392,113607564,5.125,84.062,164.060,164.062,-0.857,-1.343,-2.330,99997.27,36.37,-58.746,-56.504,-9.6174,0.1400,-9.5400,0.3700,-1.8750,0.1875,-0.1250,-9.3750,-19.0625,-37.8750,-0.0500,0.0700,-0.0900,0.2000,-9.8000,0.2800,3,3,3,3,1,1
10222,3396,113717746,5.125,84.062,164.062,164.062,-0.617,-1.002,1.810,99993.23,36.37,-58.475,-56.262,-9.6292,0.1300,-9.5600,0.3900,1.1250,0.0000,0.3125,-9.7500,-19.5000,-36.5625,-0.0500,0.1900,0.1000,0.2000,-9.8000,0.2800,3,3,3,3,1,1
10234,3400,113837201,5.125,84.000,164.044,163.875,-0.520,0.803,-0.818,99971.84,36.35,-58.264,-56.028,-9.7073,0.0500,-9.6600,0.3900,-1.0000,-4.9375,-0.1250,-9.3750,-19.0625,-37.0625,0.2100,0.1000,-0.1200,0.1900,-9.8000,0.2900,3,3,3,3,1,1
10244,3403,113937278,5.125,83.938,163.644,163.375,-0.503,-0.803,1.906,99990.87,36.34,-57.996,-55.808,-9.6123,0.1400,-9.6300,0.3400,2.6875,0.0000,0.2500,-9.0000,-18.0000,-36.5625,-0.0300,0.1800,0.0600,0.1900,-9.7900,0.3000,3,3,3,3,1,1
10256,3407,114057701,5.125,83.938,163.451,163.375,-0.416,-1.117,0.851,99994.59,36.35,-57.702,-55.561,-9.4988,0.2400,-9.6800,0.2100,-0.9375,0.2500,-0.3750,-9.0000,-18.7500,-35.3750,-0.0600,0.1500,-0.0100,0.1900,-9.7900,0.3000,3,3,3,3,1,1
10268,3411,114176358,5.125,83.938,163.396,163.375,-0.456,-0.103,-0.346,99982.57,36.35,-57.480,-55.338,-9.5969,0.1400,-9.7100,0.2000,-4.3125,0.2500,0.0625,-9.3750,-19.0625,-37.8750,-0.0400,0.0800,-0.0900,0.1900,-9.8000,0.2900,3,3,3,3,1,1
10280,3415,114297794,5.125,84.000,163.381,163.375,-0.263,-0.310,2.178,99985.02,36.36,-57.160,-55.097,-9.5565,0.1900,-9.6800,0.2800,-5.5000,0.5000,0.0000,-10.5000,-19.0625,-37.0625,-0.0300,0.0600,-0.1000,0.1900,-9.8000,0.2800,3,3,3,3,1,1
10292,3419,114418020,5.375,84.125,164.213,165.500,-0.795,-1.769,-3.359,100002.31,36.36,-56.986,-54.881,-10.5764,-0.9100,-9.6600,-0.4200,0.1875,43.9375,-3.8750,-8.2500,-19.5000,-37.8750,1.3100,0.0500,0.3000,0.2400,-9.7900,0.2600,3,3,3,3,1,1
10304,3423,114537939,5.062,83.938,166.370,167.500,-0.656,0.593,-1.719,99974.32,36.36,-56.817,-54.710,-10.1414,-0.4200,-10.0200,0.1000,1.0000,-19.0000,6.3750,-6.7500,-19.0625,-38.2500,-0.0800,0.4200,0.3800,0.1800,-9.8000,0.3000,3,3,3,3,1,1
10316,3427,114657950,5.875,84.000,166.982,167.188,-0.329,0.246,3.504,99978.44,36.37,-56.495,-54.480,-9.1095,0.6000,-9.6800,0.0300,0.7500,17.0625,-15.6875,-6.5000,-19.8750,-37.5000,0.0800,0.4400,0.1400,0.3200,-9.7900,0.2900,3,3,3,3,1,1
10328,3431,114777386,6.062,84.188,167.612,168.000,-0.724,-1.785,-0.693,100002.51,36.36,-56.273,-54.242,-7.5801,2.1600,-9.7100,0.2600,-2.0000,13.5000,-1.1875,-6.0625,-18.3750,-38.2500,0.2100,0.8000,-0.4900,0.3100,-9.7900,0.2700,3,3,3,3,1,1
10341,3435,114908545,4.875,83.875,168.725,167.625,-0.299,1.446,-0.478,99964.21,36.37,-56.023,-54.013,-7.0638,2.6200,-9.3400,-0.5000,-0.5000,-15.6250,4.7500,-4.5625,-19.0625,-38.6875,-0.0600,-0.2000,-0.3800,0.1600,-9.8000,0.3100,3,3,3,3,1,1
10351,3438,115008594,4.875,83.812,167.973,167.562,-0.358,-0.078,3.001,99982.27,36.35,-55.769,-53.847,-9.6054,0.1400,-9.7100,0.2500,1.0625,0.1875,-0.0625,-6.7500,-19.5000,-36.7500,-0.0200,0.1200,-0.0400,0.1500,-9.7900,0.3200,3,3,3,3,1,1
10363,3442,115127237,4.875,83.812,167.719,167.625,-0.498,-0.296,-1.749,99984.86,36.35,-55.569,-53.671,-9.6376,0.1100,-9.6800,0.2700,-0.4375,-0.0625,-1.0000,-8.0000,-19.5000,-38.3750,-0.0300,0.1100,-0.0400,0.1500,-9.7900,0.3200,3,3,3,3,1,1
10375,3446,115248697,4.812,83.812,167.671,167.750,-0.449,0.285,0.122,99977.97,36.36,-55.354,-53.490,-9.6468,0.1100,-9.6200,0.3400,-0.3750,0.2500,0.7500,-6.7500,-19.8750,-37.5625,0.0000,0.1900,0.0500,0.1400,-9.8000,0.3200,3,3,3,3,1,1
10387,3450,115368888,4.875,83.750,167.646,167.562,-0.545,-1.484,1.056,99998.94,36.36,-55.101,-53.310,-9.6052,0.1500,-9.6400,0.3400,1.2500,0.2500,-0.3750,-8.2500,-18.3750,-37.0625,0.0700,0.1700,0.0500,0.1500,-9.7900,0.3300,3,3,3,3,1,1
10399,3454,115488305,4.750,83.812,167.877,168.562,-0.611,-1.059,-0.598,99993.90,36.37,-54.925,-53.143,-9.7751,-0.0300,-9.6400,0.2300,0.1875,15.9375,-1.0625,-6.7500,-19.5000,-36.7500,0.0100,0.1100,-0.0500,0.1300,-9.8000,0.3200,3,3,3,3,1,1
10411,3458,115608802,4.812,83.562,168.906,169.688,-0.493,-1.344,2.651,99997.28,36.38,-54.676,-52.982,-9.4870,0.2600,-9.7200,0.2700,3.1875,0.6250,-0.1875,-6.0625,-19.5000,-38.0000,-0.0100,0.0700,-0.1800,0.1400,-9.7900,0.3600,3,3,3,3,1,1
10423,3462,115728457,4.875,81.625,169.516,170.062,-0.349,0.459,-0.781,99975.91,36.37,-54.503,-52.814,-8.6642,1.0400,-9.9900,0.0700,33.0625,9.9375,-0.5625,-5.2500,-19.5000,-38.0000,1.9000,-0.9100,0.3300,0.1500,-9.7800,0.7000,3,3,3,3,1,1
10435,3466,115848931,4.750,65.000,172.752,174.562,-0.493,-0.505,-0.572,99987.34,36.38,-54.307,-52.739,-10.3868,0.2500,-9.2000,2.6800,176.7500,-15.0625,19.1875,-2.7500,-24.2500,-35.0625,0.3800,0.1700,-0.6700,0.1300,-9.1700,3.4600,3,3,3,3,1,1
10444,3469,115948953,4.625,43.125,173.447,174.188,-0.640,0.334,-2.097,99977.39,36.35,-54.251,-52.836,-13.3395,0.4800,-6.0900,5.8000,255.9375,17.0625,-4.3125,-3.0625,-33.2500,-24.8750,-0.6300,0.9100,-0.4900,0.1100,-7.2200,6.6300,3,3,3,3,1,1
10454,3472,116049446,4.500,25.812,64.661,355.312,-0.087,1.418,2.929,99964.55,36.37,-54.032,-53.272,-16.9797,0.3200,-3.7100,8.4400,170.3750,-11.7500,18.8125,-2.3750,-38.7500,-10.5000,0.7800,1.2800,0.3200,0.0900,-4.9200,8.4800,3,3,3,3,1,1
10465,3476,116159571,3.000,9.562,16.514,353.812,-0.568,-1.398,-1.826,99997.92,36.36,-54.024,-54.129,-20.8941,0.1500,-3.3500,11.4600,103.8750,32.1875,20.2500,-4.1875,-39.5625,1.7500,1.0900,-1.5000,2.5100,-0.1700,-2.3400,9.5100,3,3,3,3,1,1
10477,3480,116278332,-2.000,5.250,-1.296,350.125,-0.490,-0.260,-0.310,99984.43,36.37,-54.133,-55.189,-19.7930,-0.5900,-0.5800,9.9600,44.0000,48.1250,58.5000,-5.0000,-39.5000,8.7500,0.4700,0.8600,0.2200,-1.1300,-1.5300,9.6200,3,3,3,3,1,1
10489,3484,116399583,-10.312,0.062,-9.323,347.312,-0.390,-0.309,0.553,99985.02,36.39,-54.299,-56.252,-19.2438,-2.4600,-1.9200,9.2400,21.3750,40.1875,-8.1250,-10.8750,-36.8750,11.6875,-0.0600,-0.5300,-0.1200,-2.4200,-0.7100,9.4700,3,3,3,3,1,1
10501,3488,116519889,-15.812,-2.500,-11.242,349.125,-0.226,-0.017,1.649,99981.55,36.38,-54.536,-57.212,-17.5387,-3.5800,-0.9400,7.9400,56.1250,15.6250,-28.8125,-12.3750,-36.8750,12.5000,-0.3400,-0.4000,-1.4200,-3.3200,-0.2800,9.2200,3,3,3,3,1,1
10513,3492,116639270,-11.812,-5.188,-9.491,351.812,-0.376,-1.086,-0.389,99994.22,36.39,-54.872,-58.111,-18.0394,-3.5000,-0.6700,8.6300,4.7500,-66.2500,-14.9375,-11.2500,-36.0000,15.5000,-0.1600,-0.9000,-0.1200,-2.6700,0.1600,9.4300,3,3,3,3,1,1
10525,3496,116759819,-5.438,-5.188,-8.379,352.125,-0.451,1.024,-2.098,99969.21,36.38,-55.384,-59.110,-18.9675,-1.9100,0.0600,9.4200,-0.1250,-41.4375,-0.1875,-9.0000,-34.8750,17.5000,0.5300,0.0300,0.4500,-1.6100,0.1600,9.6700,3,3,3,3,1,1
10537,3500,116879390,-2.625,-5.125,-7.865,352.375,-0.605,-1.060,0.348,99993.91,36.39,-55.841,-60.072,-16.8489,-3.3500,0.9000,7.4200,0.5625,-37.1875,-0.1875,-7.1875,-36.0000,18.2500,-1.7500,-0.2100,-1.5500,-1.1400,0.1500,9.7300,3,3,3,3,1,1
10546,3503,116979541,4.250,-5.125,-8.428,350.875,-0.476,-0.127,-0.459,99982.86,36.38,-56.273,-60.613,-19.6141,0.2300,-0.0900,9.8600,-1.0000,2.5625,-0.0625,-8.0000,-35.5625,18.2500,-0.1500,-0.2900,-0.0100,0.0400,0.1500,9.8000,3,3,3,3,1,1
10558,3507,117099941,4.250,-5.062,-9.014,350.750,-0.313,0.336,1.737,99977.36,36.37,-56.797,-61.596,-19.5747,0.0800,-0.0500,9.8300,0.0000,-0.1250,0.0000,-6.0625,-36.3750,18.2500,0.0400,-0.1800,0.0000,0.0400,0.1400,9.8000,3,3,3,3,1,1
10570,3511,117220133,4.250,-5.000,-9.205,350.688,-0.117,-0.511,3.286,99987.41,36.38,-57.297,-62.550,-19.5671,0.0800,-0.0300,9.8200,-0.0625,0.0000,0.1875,-6.7500,-37.0625,18.2500,0.0400,-0.1700,0.0300,0.0500,0.1200,9.8000,3,3,3,3,1,1
10582,3515,117340066,4.250,-4.875,-9.311,350.625,-0.216,-0.924,-0.214,99992.30,36.38,-57.916,-63.504,-19.5567,0.0800,-0.0600,9.8100,0.0625,-0.0625,0.0625,-6.5000,-36.0000,18.6875,0.0400,-0.1900,0.0300,0.0500,0.1100,9.8000,3,3,3,3,1,1
10594,3519,117460512,4.312,-4.812,-9.357,350.625,-0.591,-1.954,-1.771,100004.51,36.39,-58.637,-64.459,-19.5490,0.0900,-0.0400,9.8000,0.0000,0.0000,0.0625,-5.6875,-36.0000,18.2500,0.0300,-0.1800,0.0100,0.0500,0.1000,9.8000,3,3,3,3,1,1
10606,3523,117579420,4.375,-4.812,-9.382,350.562,-0.726,-1.680,-1.459,100001.26,36.39,-59.396,-65.393,-20.0274,1.0600,0.7500,10.1400,5.6875,-5.5625,3.6250,-6.0625,-36.3750,18.6875,0.7400,0.1200,0.1700,0.0700,0.1000,9.8000,3,3,3,3,1,1
10618,3527,117700686,4.312,-4.750,-9.595,350.312,-0.407,0.186,1.251,99979.15,36.40,-60.135,-66.312,-19.5031,-0.0500,-0.1100,9.7700,0.0000,-0.1875,0.0000,-6.5000,-35.5625,17.8750,0.0500,-0.1500,-0.0100,0.0600,0.0900,9.8000,3,3,3,3,1,1
10630,3531,117820894,4.312,-4.750,-9.661,350.312,-0.650,-0.606,-1.101,99988.54,36.39,-60.919,-67.211,-19.5681,0.0800,-0.0500,9.8200,-0.0625,-0.0625,0.0000,-6.0625,-36.7500,17.8750,0.0200,-0.1300,0.0000,0.0600,0.0800,9.8000,3,3,3,3,1,1
10642,3535,117950304,4.312,-4.688,-9.746,349.875,-0.860,-1.768,-0.779,100002.30,36.38,-61.781,-68.161,-19.6486,-0.3900,0.7300,9.8800,0.6250,1.1250,11.0625,-6.7500,-35.5625,18.2500,-0.3100,0.4000,0.4100,0.0500,0.0700,9.8000,3,3,3,3,1,1
10652,3538,118050793,-1.250,-12.938,-10.326,349.688,-0.893,-0.995,-1.290,99993.13,36.38,-62.496,-69.044,-21.0620,0.4000,0.0300,11.4600,160.6250,77.1250,-17.6250,-7.1875,-36.0000,19.5000,1.0200,-0.9300,1.5400,-0.9000,1.4700,9.6500,3,3,3,3,1,1
10663,3542,118160820,-11.312,-37.125,-10.971,348.312,-0.800,-0.386,0.178,99985.93,36.37,-63.244,-69.474,-14.1968,-3.1900,2.7100,8.6200,240.0000,-71.8125,61.4375,-10.5000,-29.6875,27.6875,-0.6400,-2.1400,0.5200,-2.5900,5.1400,7.9300,3,3,3,3,1,1
10675,3546,118281177,3.188,-65.250,-10.337,350.750,-0.716,-1.108,0.720,99994.48,36.39,-63.937,-69.404,-12.1729,1.3800,7.7700,2.2300,167.1250,-66.1250,25.6250,-12.3750,-16.2500,38.0000,0.7400,-0.7400,-1.7600,-0.1400,8.5700,4.7400,3,3,3,3,1,1
10687,3550,118400948,2.812,-72.125,-9.278,350.750,-0.668,-0.106,0.274,99982.61,36.38,-64.576,-69.215,-10.5482,-1.4100,8.6700,6.3700,19.0625,10.8750,11.1250,-6.0625,1.0625,42.5000,-0.3000,-0.4800,1.9500,-0.2000,9.0800,3.6800,3,3,3,3,1,1
10697,3553,118501067,2.688,-80.438,-9.240,350.438,-0.606,-1.221,0.315,99995.81,36.39,-64.977,-68.984,-10.3674,-0.0800,8.4100,3.4600,101.2500,3.1875,8.7500,-6.7500,4.7500,40.8750,0.0400,-0.9800,0.7000,-0.2200,9.5200,2.3300,3,3,3,3,1,1
10708,3557,118611585,3.062,-90.625,-9.385,350.938,-0.669,-0.284,-0.659,99984.71,36.38,-65.426,-68.688,-9.5666,-0.2300,10.1000,0.3800,69.0000,-1.3750,3.0000,-6.7500,10.6875,40.0625,0.2800,0.4600,0.0000,-0.1600,9.7800,0.6100,3,3,3,3,1,1
10720,3561,118730422,3.062,-94.188,-10.402,348.250,-0.371,0.076,2.283,99980.45,36.38,-65.715,-68.293,-9.6640,-0.0500,9.9500,0.7400,3.8750,27.5625,7.7500,-6.0625,16.6875,37.6875,-0.2200,-0.2200,0.3700,-0.1500,9.8000,0.0200,3,3,3,3,1,1
10732,3565,118851683,4.625,-95.438,-14.035,342.188,-0.292,-1.247,2.431,99996.12,36.39,-65.891,-67.826,-9.4528,-0.2300,9.0500,0.5900,24.6875,50.6875,13.4375,-7.5625,17.3750,38.0625,-0.0400,-0.1500,0.7900,0.1100,9.8000,-0.2100,3,3,3,3,1,1
10741,3568,118951301,5.312,-97.375,-18.284,338.312,-0.281,-0.660,-0.953,99989.18,36.38,-66.038,-67.520,-10.3242,0.5300,9.5000,-0.8200,7.6250,2.0000,-2.0000,-11.5625,18.5000,36.0000,0.4200,-0.4600,0.0800,0.2300,9.7800,-0.5400,3,3,3,3,1,1
10753,3572,119071909,6.062,-100.062,-19.328,340.500,-0.509,-0.753,-1.705,99990.27,36.38,-66.208,-67.119,-9.7234,0.0300,9.5000,-0.3600,24.9375,24.4375,9.5000,-10.8750,19.5625,35.1875,-0.3900,-0.2900,0.7900,0.3500,9.7400,-0.9900,3,3,3,3,1,1
10765,3576,119191820,6.812,-101.688,-19.770,339.625,-0.458,0.112,-0.606,99980.02,36.38,-66.302,-66.787,-10.8193,0.9800,9.4300,-1.3900,-0.1250,12.0000,-2.5000,-9.7500,21.8750,31.5000,0.5000,-0.3000,-0.1000,0.4800,9.7100,-1.2700,3,3,3,3,1,1
10777,3580,119311949,5.312,-100.938,-19.512,341.562,-0.385,-1.563,2.969,99999.88,36.39,-66.246,-66.418,-10.2813,0.4400,9.4000,-1.1000,-13.8750,-2.5625,-19.1250,-9.0000,21.5000,34.3750,0.0300,-0.3700,0.1900,0.2300,9.7300,-1.1400,3,3,3,3,1,1
10789,3584,119431323,4.375,-100.938,-18.266,342.500,-0.497,-0.568,-2.190,99988.09,36.38,-66.284,-65.998,-9.9804,0.1500,9.5400,-0.8700,14.1875,-6.1250,3.2500,-9.7500,20.0000,34.3750,0.2100,-0.2000,0.2200,0.0700,9.7300,-1.1600,3,3,3,3,1,1
10801,3588,119552446,3.812,-101.938,-17.335,343.375,-0.577,-0.591,-0.085,99988.35,36.39,-66.240,-65.628,-10.2321,0.2600,9.6200,-1.4700,-7.3750,9.6875,-16.7500,-9.7500,21.8750,33.0625,0.3500,-0.0200,-0.0900,-0.0300,9.7100,-1.3100,3,3,3,3,1,1
10811,3591,119652465,2.750,-101.250,-16.443,344.375,-0.393,-0.467,0.186,99986.88,36.38,-66.123,-65.254,-9.7339,-0.1900,9.5200,-1.0400,1.1875,-2.3750,-0.5000,-10.5000,20.6875,34.0000,0.0500,-0.0800,0.0100,-0.2200,9.7300,-1.2000,3,3,3,3,1,1
10822,3595,119762581,2.688,-101.688,-15.874,344.500,-0.439,-1.405,1.449,99998.01,36.40,-65.965,-64.861,-9.9809,0.0000,9.5600,-1.3100,3.1250,-2.6875,-1.7500,-10.0625,21.8750,33.5625,0.2900,-0.2000,-0.0300,-0.2300,9.7200,-1.2600,3,3,3,3,1,1
10834,3599,119881459,2.750,-102.312,-15.464,344.688,-0.334,-1.723,1.931,100001.77,36.40,-65.751,-64.430,-10.1998,0.1800,9.5700,-1.4800,7.0625,0.1250,2.7500,-10.5000,20.6875,33.0625,0.3800,-0.1500,-0.1500,-0.2200,9.7000,-1.3800,3,3,3,3,1,1
10843,3602,119981160,2.562,-102.000,-15.268,344.812,-0.443,0.054,-3.613,99980.70,36.36,-65.692,-64.105,-9.5673,-0.3300,9.5700,-0.8300,-0.8125,2.7500,1.7500,-10.0625,20.3750,33.0625,-0.2000,-0.2200,0.5100,-0.2400,9.7100,-1.3200,3,3,3,3,1,1
10855,3606,120102705,2.875,-101.625,-15.377,344.438,-0.845,-1.482,-2.039,99998.92,36.38,-65.537,-63.716,-9.8295,-0.1100,9.3800,-1.1200,-10.3750,3.5625,-3.9375,-10.5000,20.6875,32.2500,0.0300,-0.2700,0.2000,-0.1900,9.7200,-1.2500,3,3,3,3,1,1
10867,3610,120223018,2.875,-101.125,-15.755,343.938,-0.328,0.097,3.444,99980.20,36.39,-65.241,-63.281,-9.6294,-0.2600,9.4800,-0.8800,4.7500,-1.3750,4.7500,-11.2500,20.0000,33.0625,-0.0800,-0.3600,0.3400,-0.2000,9.7300,-1.1800,3,3,3,3,1,1
10879,3614,120342820,3.125,-101.750,-16.233,343.625,-0.361,0.441,-0.345,99976.12,36.38,-65.001,-62.916,-10.1284,0.1500,9.5200,-1.3800,-6.4375,2.7500,-7.2500,-11.2500,21.5000,32.7500,0.2400,-0.1600,0.0000,-0.1400,9.7200,-1.2800,3,3,3,3,1,1
10891,3618,120462939,2.688,-100.875,-16.229,343.688,-0.607,-1.029,-1.283,99993.55,36.39,-64.747,-62.512,-9.6485,-0.2400,9.5600,-0.8600,-4.2500,4.9375,-0.3125,-11.2500,20.3750,34.3750,-0.0900,-0.2300,0.4300,-0.2300,9.7300,-1.1300,3,3,3,3,1,1
10903,3622,120582284,2.812,-100.500,-16.470,343.312,-0.513,-0.731,0.649,99990.01,36.38,-64.464,-62.134,-9.7619,-0.1200,9.5200,-0.8700,-10.0625,6.1875,-4.3750,-12.0000,20.3750,33.5625,0.0200,-0.2900,0.3100,-0.2100,9.7400,-1.0500,3,3,3,3,1,1
10913,3625,120682186,2.625,-99.688,-16.652,343.125,-0.712,-1.206,-1.340,99995.64,36.39,-64.269,-61.809,-9.5485,-0.2900,9.4900,-0.6000,-4.1250,5.1250,2.5000,-12.0000,19.5625,33.5625,-0.0200,-0.2200,0.4600,-0.2300,9.7600,-0.9200,3,3,3,3,1,1
10924,3629,120793068,3.250,-100.125,-17.206,342.312,-0.629,-0.364,-0.191,99985.66,36.39,-64.013,-61.465,-10.0014,0.1000,9.5300,-1.0900,7.6250,0.3750,4.8750,-10.8750,18.8750,33.0625,0.1900,-0.2700,-0.0800,-0.1300,9.7500,-1.0100,3,3,3,3,1,1
10936,3633,120913594,3.875,-100.688,-17.846,341.625,-0.456,-0.089,0.690,99982.41,36.40,-63.649,-61.069,-9.9231,0.0500,9.5400,-1.0100,7.7500,-1.0000,8.4375,-11.5625,20.3750,33.5625,0.2100,-0.1700,-0.0200,-0.0200,9.7400,-1.1000,3,3,3,3,1,1
10948,3637,121043077,3.938,-100.625,-18.533,341.250,-0.444,-0.830,0.865,99991.19,36.38,-63.303,-60.742,-9.8538,0.0000,9.5000,-0.9100,-6.1250,1.9375,-6.1875,-12.0000,21.5000,33.0625,-0.0900,-0.2000,0.2000,-0.0100,9.7400,-1.0900,3,3,3,3,1,1
10960,3641,121163680,3.938,-100.438,-18.622,341.312,-0.396,0.504,-0.306,99975.38,36.38,-63.016,-60.398,-9.9362,0.0700,9.5000,-0.9900,2.3125,-0.3750,2.5625,-11.5625,20.6875,35.1875,0.0300,-0.2200,0.0700,-0.0100,9.7400,-1.0600,3,3,3,3,1,1
10972,3645,121282214,4.000,-100.312,-18.771,341.125,-0.431,-0.811,0.893,99990.96,36.40,-62.664,-60.075,-9.8739,0.0400,9.4900,-0.8200,-4.5625,1.9375,-2.0000,-11.2500,20.6875,32.2500,0.0400,-0.2600,0.2100,0.0000,9.7500,-1.0200,3,3,3,3,1,1
10984,3649,121403830,4.000,-100.062,-18.852,341.125,-0.549,-0.398,-1.346,99986.07,36.39,-62.386,-59.757,-9.8352,0.0100,9.4800,-0.7700,-0.4375,-0.2500,-0.3125,-12.0000,20.0000,31.8750,0.0400,-0.1700,0.0700,0.0000,9.7500,-0.9900,3,3,3,3,1,1
10996,3653,121524126,4.000,-99.688,-18.852,341.125,-0.536,0.867,-1.893,99971.08,36.40,-62.127,-59.453,-9.7088,-0.0900,9.5000,-0.6100,-0.5625,0.7500,0.8750,-11.5625,20.3750,32.7500,-0.0100,-0.2700,0.2300,0.0000,9.7600,-0.9300,3,3,3,3,1,1
11008,3657,121643904,4.000,-99.750,-18.915,341.125,-0.592,-0.075,0.395,99982.23,36.38,-61.804,-59.152,-9.8824,0.0400,9.5100,-0.8800,0.8750,-1.6875,-2.5000,-12.0000,21.0625,33.0625,0.0500,-0.2200,0.0700,0.0000,9.7600,-0.9400,3,3,3,3,1,1
11020,3661,121763948,3.875,-99.750,-18.794,341.250,-0.275,0.771,1.618,99972.22,36.39,-61.445,-58.839,-9.7754,-0.0500,9.5000,-0.7500,-0.8750,1.0625,-0.3125,-11.5625,20.3750,33.0625,-0.0400,-0.2600,0.1800,-0.0200,9.7600,-0.9400,3,3,3,3,1,1
11032,3665,121883325,3.938,-99.688,-18.747,341.250,-0.334,-0.052,0.381,99981.97,36.39,-61.104,-58.544,-9.7878,-0.0200,9.5100,-0.6600,-1.0000,0.9375,0.0000,-11.2500,20.3750,33.0625,0.0100,-0.2000,0.2600,-0.0100,9.7600,-0.9300,3,3,3,3,1,1
11042,3668,121983578,4.000,-99.750,-18.750,341.188,-0.389,-0.993,0.082,99993.12,36.38,-60.814,-58.298,-9.7751,-0.0400,9.4900,-0.7100,1.1250,1.7500,0.5625,-12.0000,20.3750,32.7500,0.0600,-0.2300,0.1400,0.0000,9.7600,-0.9400,3,3,3,3,1,1
11054,3672,122104584,4.000,-99.812,-18.759,341.250,-0.370,-0.383,-0.374,99985.89,36.38,-60.512,-58.022,-9.8544,0.0200,9.5100,-0.8300,-0.0625,-0.2500,0.0625,-10.8750,20.0000,33.0625,0.0300,-0.3000,0.0700,0.0000,9.7500,-0.9500,3,3,3,3,1,1
11066,3676,122224874,3.938,-99.312,-18.741,341.312,-0.307,-0.067,1.118,99982.14,36.37,-60.190,-57.757,-10.2746,0.3500,9.6000,-1.4200,-17.3125,0.1250,-3.8750,-10.8750,20.0000,32.7500,0.2700,-0.2800,-0.2900,-0.0100,9.7600,-0.8600,3,3,3,3,1,1
11078,3680,122344285,3.750,-98.375,-18.802,341.125,-0.273,0.586,-0.420,99974.41,36.38,-59.897,-57.474,-9.8211,0.0100,9.5900,-0.6600,3.4375,-1.2500,3.1875,-12.0000,20.0000,33.0625,0.0000,-0.2700,0.0900,-0.0500,9.7800,-0.7000,3,3,3,3,1,1
11090,3684,122464737,3.875,-98.375,-18.949,340.938,-0.628,-0.263,-3.184,99984.47,36.39,-59.663,-57.228,-9.8519,0.0500,9.5800,-0.6200,-2.0000,0.1875,0.1875,-11.5625,20.3750,33.8750,0.0000,-0.2900,0.1100,-0.0200,9.7800,-0.7100,3,3,3,3,1,1
11102,3688,122583446,3.938,-98.125,-19.085,340.812,-0.830,-0.498,-1.416,99987.25,36.39,-59.439,-56.987,-9.7876,0.0000,9.5200,-0.5200,-1.3750,0.5000,0.6250,-11.5625,19.5625,33.0625,0.0500,-0.2700,0.1100,-0.0100,9.7800,-0.6600,3,3,3,3,1,1
11114,3692,122704820,3.750,-97.375,-19.186,340.688,-0.902,-0.881,-0.718,99991.80,36.39,-59.195,-56.746,-9.5536,-0.1900,9.5300,-0.1200,-8.9375,5.0000,-3.3125,-12.0000,18.5000,34.3750,-0.1900,-0.2300,0.4200,-0.0500,9.7900,-0.5300,3,3,3,3,1,1
11126,3696,122825117,3.938,-97.062,-19.315,340.500,-0.499,-0.676,3.687,99989.37,36.40,-58.844,-56.482,-9.7548,0.0100,9.5000,-0.1500,-2.1250,2.0000,1.3750,-10.8750,18.8750,33.5625,0.0000,-0.2800,0.3200,-0.0100,9.7900,-0.4800,3,3,3,3,1,1
11135,3699,122914917,3.875,-97.062,-19.422,340.562,-0.477,-0.013,-0.020,99981.51,36.38,-58.632,-56.299,-9.7999,0.0200,9.5500,-0.4300,-4.7500,2.9375,-3.5000,-12.7500,18.5000,34.0000,0.0300,-0.2800,0.1600,-0.0200,9.7900,-0.4800,3,3,3,3,1,1
11147,3703,123044940,3.875,-97.062,-19.442,340.500,-0.553,-1.074,0.186,99994.08,36.38,-58.342,-56.051,-9.8595,0.0800,9.5400,-0.4300,1.3125,0.1250,3.0000,-12.0000,18.1875,34.0000,0.1100,-0.2000,0.0000,-0.0200,9.7900,-0.4800,3,3,3,3,1,1
11159,3707,123165446,3.875,-96.562,-19.540,340.375,-0.531,0.281,-1.457,99978.02,36.39,-58.119,-55.832,-9.5356,-0.2000,9.5200,-0.0100,-0.3750,0.3125,1.6875,-12.3750,19.1875,34.3750,-0.0800,-0.2200,0.2000,-0.0200,9.7900,-0.4000,3,3,3,3,1,1
11171,3711,123284400,4.000,-96.438,-19.728,340.125,-0.313,-0.500,2.809,99987.27,36.40,-57.775,-55.602,-9.8901,0.1200,9.5800,-0.3500,-0.8750,0.8750,0.8125,-12.7500,18.1875,34.0000,0.0900,-0.2300,0.0300,0.0000,9.7900,-0.3700,3,3,3,3,1,1
11183,3715,123405583,4.000,-96.312,-19.846,340.125,-0.441,0.186,-2.049,99979.15,36.39,-57.560,-55.395,-9.7687,0.0000,9.5300,-0.3200,-0.5625,0.6250,0.6875,-12.0000,18.5000,33.0625,-0.0100,-0.2300,0.0700,0.0000,9.8000,-0.3600,3,3,3,3,1,1
11195,3719,123525777,4.062,-96.188,-19.956,339.938,-0.113,1.769,1.194,99960.38,36.40,-57.272,-55.183,-9.6682,-0.0800,9.5500,-0.1300,-2.8125,0.8750,0.3750,-12.3750,18.8750,33.8750,-0.0500,-0.2400,0.2500,0.0100,9.8000,-0.3400,3,3,3,3,1,1
11207,3723,123645284,4.125,-96.125,-20.068,339.812,-0.220,-0.704,1.443,99989.69,36.39,-56.940,-54.973,-9.8487,0.0900,9.5100,-0.2400,-3.7500,3.0000,-1.3750,-12.7500,18.8750,34.0000,0.0200,-0.2800,0.2000,0.0200,9.8000,-0.3200,3,3,3,3,1,1
11219,3727,123765695,4.062,-96.000,-20.154,339.812,-0.320,-0.321,-1.299,99985.16,36.38,-56.717,-54.782,-9.8651,0.0900,9.5500,-0.3800,-1.2500,-0.3125,0.1875,-12.3750,18.5000,34.3750,0.1800,-0.2300,-0.1400,0.0100,9.8000,-0.3000,3,3,3,3,1,1
11231,3731,123884157,4.062,-95.688,-20.199,339.750,-0.252,-0.373,0.955,99985.77,36.40,-56.449,-54.584,-9.8164,0.0600,9.5100,-0.1700,3.8750,-1.6250,3.9375,-12.3750,18.5000,34.7500,0.0500,-0.2800,0.0700,0.0100,9.8000,-0.2500,3,3,3,3,1,1
11241,3734,123986065,4.188,-95.812,-20.365,339.500,-0.395,0.151,-1.838,99979.56,36.37,-56.300,-54.448,-9.6760,-0.0600,9.5900,0.0000,-1.0000,1.3125,-1.1250,-12.7500,18.5000,35.5625,-0.1400,-0.2600,0.3300,0.0300,9.8000,-0.2700,3,3,3,3,1,1
11253,3738,124105950,4.562,-95.938,-20.573,339.188,-0.528,-1.399,0.342,99997.94,36.39,-56.059,-54.268,-9.9882,0.2300,9.5000,-0.3000,0.5625,-0.1250,3.6875,-11.5625,18.5000,33.5625,0.2600,-0.2800,-0.1600,0.0900,9.8000,-0.2800,3,3,3,3,1,1
11265,3742,124226126,4.312,-95.562,-20.762,339.250,-0.403,-0.496,0.960,99987.23,36.39,-55.845,-54.104,-9.6277,-0.1100,9.5300,0.0000,-2.2500,-0.1250,-0.1250,-12.3750,18.5000,34.7500,-0.1200,-0.2700,0.1800,0.0600,9.8000,-0.2300,3,3,3,3,1,1
11277,3746,124346049,4.562,-95.875,-20.873,339.062,-0.366,0.922,-0.565,99970.42,36.39,-55.671,-53.951,-9.6893,-0.0400,9.5300,0.0000,2.7500,-0.5000,0.9375,-12.7500,18.5000,34.7500,-0.0900,-0.2600,0.2100,0.1000,9.8000,-0.2800,3,3,3,3,1,1
11289,3750,124466435,4.812,-96.188,-20.983,338.938,-0.427,-1.639,1.720,100000.77,36.39,-55.391,-53.789,-9.8038,0.0600,9.5200,-0.2200,0.0625,-0.3750,1.1875,-12.7500,18.5000,34.3750,-0.0400,-0.2700,0.1400,0.1400,9.7900,-0.3300,3,3,3,3,1,1
11301,3754,124585232,5.000,-96.312,-21.113,338.812,-0.519,-0.841,-0.993,99991.32,36.40,-55.243,-53.660,-9.8831,0.1500,9.5200,-0.1700,2.0000,-0.9375,0.3125,-12.3750,18.1875,34.0000,-0.0100,-0.2500,0.0900,0.1700,9.7900,-0.3500,3,3,3,3,1,1
11313,3758,124706602,5.062,-96.625,-21.128,338.812,-0.536,-0.953,-0.412,99992.64,36.39,-55.063,-53.525,-9.8615,0.1300,9.5500,-0.2000,3.5625,-0.4375,1.3125,-12.7500,19.1875,34.3750,0.0100,-0.2400,0.0900,0.1800,9.7900,-0.4100,3,3,3,3,1,1
11325,3762,124826871,5.188,-96.938,-21.212,338.688,-0.842,-1.987,-1.859,100004.91,36.39,-54.940,-53.413,-9.9733,0.2300,9.5000,-0.3500,1.0000,0.3750,0.4375,-12.3750,19.1875,34.7500,0.0800,-0.2800,0.1100,0.2100,9.7900,-0.4600,3,3,3,3,1,1
11335,3765,124927085,5.250,-97.125,-21.277,338.688,-0.683,-0.710,-0.051,99989.77,36.39,-54.820,-53.316,-9.8963,0.1500,9.5700,-0.4000,3.6875,-0.7500,1.0000,-11.5625,18.8750,34.7500,0.0300,-0.2500,0.0000,0.2100,9.7900,-0.5000,3,3,3,3,1,1
11347,3769,125046347,5.250,-97.125,-21.377,338.562,-0.747,-0.955,0.061,99992.66,36.37,-54.679,-53.208,-9.9738,0.2300,9.5200,-0.3800,-2.3125,1.1250,-0.5000,-12.3750,20.0000,35.1875,-0.0100,-0.2500,0.1100,0.2200,9.7900,-0.4900,3,3,3,3,1,1
11359,3773,125166795,5.250,-96.938,-21.420,338.562,-0.788,-0.175,-1.467,99983.42,36.37,-54.582,-53.108,-9.9651,0.2200,9.5600,-0.3800,-3.3750,0.8125,0.3750,-12.0000,19.1875,33.5625,0.0000,-0.2400,0.0900,0.2200,9.7900,-0.4600,3,3,3,3,1,1
11371,3777,125285479,5.250,-96.625,-21.438,338.562,-0.623,-1.003,2.786,99993.23,36.38,-54.373,-52.991,-10.0431,0.3000,9.5300,-0.3400,-2.3750,0.5625,-0.7500,-12.0000,20.0000,34.3750,0.0800,-0.2600,0.0600,0.2100,9.7900,-0.4100,3,3,3,3,1,1
11383,3781,125406939,5.125,-96.375,-21.399,338.688,-0.421,0.235,0.438,99978.56,36.39,-54.217,-52.882,-10.0327,0.2800,9.5000,-0.3800,-1.3750,0.1250,-1.0000,-12.0000,18.8750,33.5625,0.1300,-0.1600,-0.1400,0.1900,9.7900,-0.3600,3,3,3,3,1,1
11395,3785,125527126,3.750,-95.250,-20.840,340.062,-0.718,-1.687,-1.050,100001.34,36.38,-54.078,-52.799,-10.2565,0.4600,9.7700,-0.5500,-21.1875,0.6250,-24.8750,-12.3750,20.0000,32.7500,0.5500,-0.1200,-0.4600,-0.0400,9.8000,-0.1700,3,3,3,3,1,1
11407,3789,125646977,-3.000,-86.750,-18.340,344.750,-0.278,-0.080,3.029,99982.30,36.39,-53.881,-52.654,-8.9109,-0.9100,8.6700,0.6800,-119.1250,18.8750,-81.1875,-13.8750,15.1875,36.3750,0.1600,0.0800,0.0700,-1.1900,9.6500,1.2600,3,3,3,3,1,1
11419,3793,125767443,-11.375,-67.812,-12.841,352.062,-0.024,-0.106,2.766,99982.61,36.39,-53.633,-52.354,-8.0723,-2.7500,7.3400,3.6700,-180.6875,-14.8125,-81.0625,-16.0625,4.7500,38.8750,-0.1600,-1.4400,-0.3200,-2.6000,8.4600,4.2000,3,3,3,3,1,1
11431,3797,125886938,-17.938,-41.562,-7.015,356.688,-0.032,-0.283,0.080,99984.71,36.39,-53.422,-52.131,-9.9298,-4.8800,5.6500,6.5500,-240.0625,-21.0000,-78.9375,-15.2500,-7.0625,38.5000,0.0300,-0.2800,-0.0700,-3.6600,5.5100,7.2300,3,3,3,3,1,1
11441,3800,125986207,-19.750,-23.250,-4.242,357.375,-0.259,-0.681,-2.463,99989.41,36.36,-53.330,-52.421,-14.9907,-4.2900,1.3000,8.4200,-171.3125,16.0625,-51.8125,-13.5000,-21.8750,31.5000,-0.4800,-1.5900,-0.0700,-3.9900,2.6500,8.5500,3,3,3,3,1,1
11453,3804,126107699,-21.500,-6.188,-1.668,0.500,-0.396,-0.641,-1.598,99988.95,36.38,-53.290,-53.154,-17.5901,-4.9800,-0.1900,8.9200,-102.0625,3.3750,-46.6250,-10.5000,-33.3750,21.6875,-0.0600,-0.7900,0.0000,-4.2200,0.2900,8.8400,3,3,3,3,1,1
11465,3808,126227897,-6.312,-4.250,0.548,1.500,-0.363,-0.564,1.026,99988.03,36.38,-53.310,-54.094,-18.8712,-1.9400,0.0000,9.2900,-1.8125,-97.6250,6.2500,-6.7500,-36.0000,17.5625,-0.3000,0.0600,-0.5200,-1.7600,0.0000,9.6400,3,3,3,3,1,1
11477,3812,126346756,5.000,-4.250,0.933,1.062,-0.451,-1.009,-0.559,99993.31,36.37,-53.462,-55.139,-19.4751,-0.1500,-0.1900,9.7600,1.0625,-0.9375,-4.5625,0.1875,-35.8750,18.0000,-0.2100,-0.1200,0.0000,0.1800,0.0000,9.8000,3,3,3,3,1,1
11489,3816,126467830,5.000,-4.250,1.035,0.938,-0.241,0.612,0.284,99974.09,36.39,-53.722,-56.207,-19.5691,0.1900,0.0300,9.8100,-0.1250,-0.5000,0.3125,-0.8750,-36.6875,18.3750,-0.0700,-0.0300,0.0200,0.1700,0.0000,9.8000,3,3,3,3,1,1
11501,3820,126587318,5.000,-4.250,0.822,0.625,0.027,-0.001,3.091,99981.37,36.38,-53.952,-57.231,-19.5641,0.0700,-0.0400,9.8200,-0.0625,-0.1250,-0.0625,-0.8750,-37.3750,18.0000,-0.0600,-0.0200,0.0300,0.1700,0.0000,9.8000,3,3,3,3,1,1
11513,3824,126707938,4.938,-4.250,0.482,0.125,-0.090,-0.980,-0.145,99992.96,36.38,-54.333,-58.269,-19.5452,0.0700,-0.0400,9.8000,0.0625,0.0625,-0.0625,-1.2500,-37.3750,18.3750,-0.0900,-0.0400,0.0100,0.1600,0.0000,9.8000,3,3,3,3,1,1
11525,3828,126828135,4.938,-4.250,0.111,359.938,-0.183,-0.663,-1.252,99989.21,36.38,-54.832,-59.303,-19.5890,0.0900,-0.0100,9.8400,0.1250,0.1875,-0.1250,0.1875,-36.6875,18.0000,-0.0700,-0.0500,0.0000,0.1600,0.0000,9.8000,3,3,3,3,1,1
11534,3831,126918465,4.938,-4.250,-0.102,359.750,0.064,1.278,0.032,99966.20,36.39,-55.267,-60.142,-19.5537,0.1500,-0.0100,9.8000,-0.1875,0.5000,-0.1250,-0.0625,-36.6875,18.3750,-0.1700,-0.1000,-0.0100,0.1600,0.0000,9.8000,3,3,3,3,1,1
11546,3835,127048067,4.938,-4.250,-0.214,359.688,-0.261,-1.784,0.498,100002.50,36.37,-55.806,-61.143,-19.5896,0.2500,0.0900,9.8200,-0.5625,1.7500,0.0000,-0.5000,-36.6875,17.1875,-0.0400,-0.0300,0.0100,0.1600,0.0000,9.8000,3,3,3,3,1,1
11558,3839,127168557,4.875,-4.250,-0.356,359.562,-0.481,-1.093,-2.958,99994.30,36.38,-56.527,-62.155,-19.5724,0.1100,0.0000,9.8200,0.2500,-0.0625,-0.1875,-0.5000,-36.6875,17.1875,-0.1300,-0.0400,0.0000,0.1500,0.0000,9.8000,3,3,3,3,1,1
11570,3843,127287565,7.750,-4.812,-1.150,357.812,-0.208,-0.342,1.684,99985.40,36.38,-57.172,-63.165,-20.3033,0.5800,-0.8700,10.7000,11.5625,-90.8125,10.8125,-0.8750,-36.6875,18.0000,-0.2900,-1.1100,0.6500,0.8200,0.1200,9.7700,3,3,3,3,1,1
11582,3847,127408684,29.750,-7.188,-2.303,357.500,0.005,1.690,0.001,99961.32,36.38,-57.899,-64.122,-18.1872,4.4500,0.6000,8.7400,18.0000,-249.8750,-1.1875,2.0625,-37.0625,19.5625,0.8300,0.0200,-0.7600,4.2600,0.4500,8.8100,3,3,3,3,1,1
11594,3851,127528900,57.125,-14.312,29.460,90.188,-0.332,-0.265,-2.166,99984.49,36.39,-58.626,-64.659,-15.0461,6.0100,1.3100,5.1100,22.3125,-251.6250,-21.3125,9.0625,-35.1875,16.7500,-1.0500,0.3100,-0.7700,7.8400,1.0300,5.7800,3,3,3,3,1,1
11606,3855,127648805,81.375,-53.000,76.190,97.500,-0.053,0.666,0.801,99973.45,36.37,-59.280,-65.193,-18.0268,8.7800,1.9500,0.5300,-18.7500,-222.6250,-30.7500,19.8750,-33.2500,6.8750,-0.9000,0.2600,-1.5100,9.5700,1.6100,1.4000,3,3,3,3,1,1
11618,3859,127768937,72.812,-145.438,97.072,110.062,-0.139,-0.394,0.028,99986.02,36.38,-59.931,-65.750,-13.5710,8.1300,1.8200,-2.4000,-7.8125,-250.5000,-40.3125,22.8750,-33.0000,-3.2500,-0.8900,0.1300,-0.3400,9.1400,2.2100,-2.7500,3,3,3,3,1,1
11630,3863,127888218,50.688,-164.812,112.454,120.875,-0.223,-0.675,-0.512,99989.35,36.38,-60.563,-65.910,-14.4149,7.2300,2.3100,-7.2600,42.8750,-132.0000,-7.3125,19.5625,-31.5000,-15.1875,0.0900,-0.2600,-0.8000,6.9800,2.1900,-6.5200,3,3,3,3,1,1
11640,3866,127988294,41.875,-169.875,38.491,353.812,-0.338,-0.480,-0.668,99987.05,36.37,-61.093,-66.164,-14.6509,5.6300,2.4000,-7.4100,30.8750,-67.9375,-13.5625,15.3750,-32.5000,-20.6875,-1.0500,-0.0800,-0.0500,5.9400,1.8800,-7.5600,3,3,3,3,1,1
11652,3870,128109466,32.062,-175.000,8.440,358.562,-0.267,0.588,-1.070,99974.38,36.37,-61.699,-66.652,-15.5643,5.6100,3.0800,-8.1700,8.7500,34.3750,26.1250,12.7500,-34.2500,-20.6875,1.0600,1.1800,-0.0200,4.6100,1.3800,-8.5400,3,3,3,3,1,1
11664,3874,128229774,29.000,-175.875,2.545,0.875,-0.278,-0.224,0.644,99984.00,36.38,-62.243,-67.158,-15.6944,2.4900,2.2300,-7.7800,15.6875,31.5625,12.0000,8.0000,-35.7500,-22.3750,0.3400,-1.2300,-0.2200,4.1400,1.2900,-8.7900,3,3,3,3,1,1
11676,3878,128349182,27.812,-174.875,1.877,1.875,0.048,0.018,3.282,99981.13,36.37,-62.722,-67.768,-17.0012,3.6200,1.4600,-8.5700,-21.5000,-27.5000,-6.6875,6.5000,-35.3750,-23.1875,-0.6500,-0.2800,1.5200,3.9600,1.4500,-8.8500,3,3,3,3,1,1
11688,3882,128469702,25.812,-176.188,2.892,4.188,-0.028,0.157,-1.140,99979.49,36.39,-63.291,-68.333,-18.0252,2.6800,0.3900,-9.1400,-10.6250,-14.6250,8.7500,6.5000,-35.7500,-22.2500,-1.0500,-0.9000,0.1200,3.6400,1.2700,-9.0100,3,3,3,3,1,1
11700,3886,128588428,26.188,-175.750,4.376,5.250,0.188,0.012,2.474,99981.20,36.38,-63.765,-68.881,-16.8730,3.4500,1.3000,-8.2500,-4.9375,-10.9375,3.1875,3.5000,-35.7500,-22.2500,-0.0900,-0.3400,0.8100,3.7000,1.3300,-8.9800,3,3,3,3,1,1
11712,3890,128709795,31.062,-176.500,4.963,5.188,0.259,0.802,-0.681,99971.84,36.36,-64.311,-69.383,-14.9027,2.4100,1.6300,-6.7700,-17.6250,19.3750,-2.6875,6.0625,-35.3750,-22.0000,0.0600,0.2600,1.2700,4.4600,1.1700,-8.6500,3,3,3,3,1,1
11724,3894,128830024,30.750,-176.688,5.503,6.188,0.307,-0.670,1.905,99989.29,36.38,-64.762,-69.850,-18.8765,4.5300,0.8300,-10.7600,15.2500,31.2500,13.5625,5.7500,-35.3750,-22.7500,1.7300,1.1300,-2.9000,4.4200,1.1400,-8.6700,3,3,3,3,1,1
11736,3898,128959573,29.000,-175.562,5.885,6.188,-0.141,0.586,-5.390,99974.41,36.36,-65.495,-70.408,-16.3941,3.3200,1.6600,-8.1800,-2.3125,-12.6250,1.3750,3.8750,-34.2500,-23.1875,0.5000,0.0900,1.2300,4.1200,1.3400,-8.7900,3,3,3,3,1,1
11748,3902,129080653,26.812,-172.125,6.291,6.562,-0.217,0.031,-0.768,99980.98,36.37,-66.050,-70.866,-16.7659,3.7500,1.7200,-8.1600,-25.8125,-12.8750,-4.1250,6.0625,-35.0000,-23.1875,0.0100,-0.2500,-0.0700,3.8000,1.8900,-8.8300,3,3,3,3,1,1
11760,3906,129200065,24.938,-168.625,6.265,6.062,-0.247,-0.658,0.499,99989.15,36.37,-66.569,-71.319,-17.2803,2.3700,3.1800,-9.3600,-7.1250,-37.6875,-10.2500,4.5625,-33.5000,-27.6875,1.1400,0.7800,-0.8300,3.5000,2.4500,-8.8200,3,3,3,3,1,1
11772,3910,129320593,17.500,-163.750,5.184,4.562,-0.098,0.633,-0.217,99973.84,36.37,-67.108,-71.762,-14.0850,1.8600,2.0800,-4.7600,29.5625,18.3750,9.6250,3.8750,-31.6875,-28.8750,1.1600,-0.3800,1.4600,2.2900,3.3300,-8.9300,3,3,3,3,1,1
11784,3914,129439206,16.938,-165.938,4.012,2.875,0.070,0.154,2.168,99979.52,36.39,-67.549,-72.241,-16.7792,1.8300,2.4800,-7.7900,39.0625,9.5625,-14.3125,3.5000,-30.1875,-29.6875,-0.3800,-0.0600,1.1500,2.2200,2.9300,-9.0800,3,3,3,3,1,1
11796,3918,129560682,17.312,-167.188,2.042,0.250,-0.187,-0.673,-1.444,99989.32,36.37,-68.084,-72.732,-17.6826,2.5000,2.8400,-8.7500,12.4375,33.0000,-15.1250,5.0000,-31.2500,-29.7500,0.4000,0.1200,-0.3000,2.2600,2.7900,-9.1200,3,3,3,3,1,1
11808,3922,129681018,18.812,-167.625,0.277,359.375,-0.236,1.068,-2.885,99968.70,36.37,-68.682,-73.262,-17.3770,1.5500,2.4700,-8.6700,9.5625,5.8750,-5.0000,6.5000,-32.7500,-28.0625,0.0700,-0.0600,1.0200,2.5100,2.7000,-9.0800,3,3,3,3,1,1
11820,3926,129800821,19.125,-169.500,-0.372,359.500,-0.185,0.232,0.372,99978.60,36.38,-69.162,-73.726,-18.4002,1.9500,2.1400,-9.6100,4.0000,-12.0000,5.5625,6.8750,-32.7500,-27.6875,-0.6400,-0.4500,-0.0200,2.5600,2.4000,-9.1500,3,3,3,3,1,1
11832,3930,129920950,18.625,-171.750,-0.200,0.062,-0.500,-0.874,-1.968,99991.71,36.38,-69.712,-74.190,-17.5846,3.4700,1.9800,-8.4300,18.0000,-13.1875,4.2500,6.5000,-32.7500,-26.0625,-0.8500,-0.1300,0.3000,2.4700,2.0400,-9.2600,3,3,3,3,1,1
11843,3934,130040420,15.688,-174.750,0.292,0.875,-0.622,-1.117,-0.668,99994.59,36.37,-70.262,-74.707,-18.7899,1.7300,1.6200,-9.6600,16.4375,-42.1875,12.1875,5.3750,-33.5000,-25.5625,-0.9200,-0.3700,-0.1100,1.9200,1.5500,-9.4800,3,3,3,3,1,1
11855,3938,130161436,13.875,-177.812,0.722,0.688,-0.443,-0.615,1.314,99988.64,36.38,-70.766,-75.223,-18.3179,1.7800,1.1600,-8.9900,18.8750,6.5000,0.1875,2.3750,-35.0000,-22.7500,-0.2400,-0.2100,0.5200,1.6800,1.0700,-9.5900,3,3,3,3,1,1
11865,3941,130261465,13.875,-179.500,0.669,0.562,-0.263,0.034,1.457,99980.95,36.37,-71.167,-75.717,-19.2213,2.1600,0.3700,-9.7700,19.1250,-18.7500,-2.8125,3.1875,-36.5000,-21.5000,-0.2100,-0.0500,0.0200,1.6800,0.7900,-9.6200,3,3,3,3,1,1
11876,3945,130371565,12.125,-180.875,0.344,0.000,-0.174,-0.556,0.768,99987.94,36.36,-71.595,-76.205,-18.9868,0.8900,0.6300,-9.5400,16.9375,-8.7500,-4.4375,3.1875,-36.5000,-21.0625,-0.4700,0.0700,0.2800,1.3900,0.5600,-9.6900,3,3,3,3,1,1
11888,3949,130490411,10.375,-182.500,-0.099,359.688,0.009,0.211,0.969,99978.84,36.37,-72.073,-76.733,-19.0718,0.7300,0.2700,-9.5100,23.5625,-13.3750,3.3750,2.3750,-36.8750,-19.0625,-0.4500,-0.2800,0.2900,1.0600,0.2500,-9.7400,3,3,3,3,1,1
11900,3953,130611687,6.875,-183.938,-0.309,359.750,0.161,-0.173,2.328,99983.41,36.37,-72.509,-77.274,-19.5610,1.3500,-0.4300,-9.8900,14.8750,-30.1250,7.1250,2.3750,-37.5625,-18.5625,0.1100,-0.2000,0.3500,0.4900,0.0400,-9.7900,3,3,3,3,1,1
11912,3957,130732009,6.438,175.500,0.040,0.375,-0.059,-0.606,-1.278,99988.53,36.36,-73.037,-77.817,-19.2558,0.0800,-0.2200,-9.5200,1.4375,0.1250,3.9375,0.8750,-37.0625,-18.5000,-0.2800,-0.1500,0.2900,0.4100,-0.0300,-9.7900,3,3,3,3,1,1
11924,3961,130851803,6.188,175.312,0.228,0.250,-0.160,-0.248,-1.304,99984.30,36.36,-73.584,-78.350,-19.1926,0.0700,-0.1700,-9.4600,1.0625,-0.3125,0.4375,0.8750,-36.2500,-16.7500,-0.3700,-0.1800,0.3100,0.3700,-0.0600,-9.7900,3,3,3,3,1,1
11935,3965,130971927,6.000,175.188,0.210,0.188,-0.488,-0.650,-2.114,99989.05,36.38,-74.180,-78.881,-19.2057,0.0300,-0.1600,-9.4700,0.3125,0.1250,0.2500,0.5625,-36.6875,-16.7500,-0.2200,-0.0300,0.3300,0.3400,-0.0900,-9.8000,3,3,3,3,1,1
11947,3969,131091210,5.688,175.125,0.147,0.062,-0.173,0.461,0.962,99975.89,36.38,-74.682,-79.379,-19.1620,0.0600,-0.1100,-9.4300,-0.5625,-1.7500,0.0625,1.2500,-37.0625,-16.7500,-0.2500,-0.0100,0.3500,0.2900,-0.0900,-9.8000,3,3,3,3,1,1
11959,3973,131211995,5.625,175.250,0.112,0.125,-0.426,-0.847,-0.601,99991.38,36.36,-75.223,-79.878,-19.1849,0.0100,-0.0700,-9.4500,-2.4375,0.1875,0.3125,0.5625,-37.3750,-16.3750,-0.2500,-0.0100,0.3300,0.2800,-0.0700,-9.8000,3,3,3,3,1,1
11969,3976,131312465,5.562,175.312,0.141,0.125,-0.223,-0.795,0.720,99990.77,36.37,-75.616,-80.274,-19.2046,0.0800,-0.1100,-9.4700,0.5000,-2.3750,-1.2500,0.1875,-37.0625,-18.8750,-0.2100,-0.0300,0.3300,0.2700,-0.0700,-9.8000,3,3,3,3,1,1
11980,3980,131422569,5.562,175.250,0.048,359.938,-0.083,0.809,0.036,99971.76,36.38,-76.088,-80.706,-19.1848,0.0800,-0.1200,-9.4500,-0.0625,0.0000,0.3125,0.5625,-36.6875,-17.5625,-0.1600,-0.0200,0.3000,0.2700,-0.0800,-9.8000,3,3,3,3,1,1
11992,3984,131541240,5.500,175.062,-0.019,359.938,-0.134,-0.598,0.359,99988.45,36.36,-76.547,-81.163,-19.3298,0.0900,-0.1100,-9.6000,1.4375,-0.0625,-1.0625,0.5625,-37.0625,-16.3750,-0.1700,0.0000,0.1900,0.2600,-0.1100,-9.8000,3,3,3,3,1,1
12004,3988,131662186,5.438,174.938,-0.140,359.812,-0.230,0.712,-1.861,99972.91,36.37,-77.115,-81.643,-19.3819,0.0800,-0.1400,-9.6500,-1.0625,0.0625,-0.5000,0.8750,-36.2500,-16.7500,-0.1800,0.0000,0.1800,0.2500,-0.1300,-9.8000,3,3,3,3,1,1
12016,3992,131782881,5.375,174.938,-0.140,359.875,0.155,0.338,3.396,99977.34,36.37,-77.498,-82.074,-19.3538,0.0500,-0.1200,-9.6200,-1.8750,0.1250,-0.5000,0.8750,-37.3750,-16.7500,-0.1700,0.0000,0.2000,0.2400,-0.1300,-9.8000,3,3,3,3,1,1
