=~=~=~=~=~=~=~=~=~=~=~= PuTTY log 2026.08.22 14:34:16 =~=~=~=~=~=~=~=~=~=~=~=
imu_seq,baro_seq,timestamp_us,roll_deg,pitch_deg,yaw_deg,heading_deg,altitude_m,raw_altitude_m,climb_rate_mps,pressure_pa,temperature_c,comp_altitude_m,comp_climb_rate_mps,comp_accel_up_mss,accel_x_mss,accel_y_mss,accel_z_mss,gyro_x_dps,gyro_y_dps,gyro_z_dps,mag_x_ut,mag_y_ut,mag_z_ut,linacc_x_mss,linacc_y_mss,linacc_z_mss,grav_x_mss,grav_y_mss,grav_z_mss,imu_valid,baro_valid
[IMU] BNO055 axis_map=0x24 sign_x=0 sign_y=0 sign_z=0
[SETUP] Baro PROM: C1=39189 C2=35799 C3=24633 C4=24872 C5=35093 C6=27857
[SETUP] Airspeed init failed -- check wiring/I2C address
[SETUP] SD card init failed -- check the card is inserted
5,1,10719753,3.562,-5.750,22.562,22.562,-0.087,-0.482,0.000,99984.88,35.52,-0.019,-0.778,-19.5737,-0.1000,0.2500,9.8300,0.0625,0.0000,-0.1250,-1.3750,-15.1875,-90.5625,0.0100,0.0000,0.0200,-0.0700,0.2600,9.8000,1,1
17,5,10839680,3.562,-5.750,22.562,22.562,-0.020,-0.996,0.000,99990.97,35.70,-0.216,-3.115,-19.5735,-0.0900,0.2300,9.8300,0.0000,0.0000,0.0000,-1.0000,-14.3750,-91.0625,0.0000,-0.0100,0.0300,-0.0700,0.2600,9.8000,1,1
29,9,10959686,3.562,-5.750,22.562,22.562,-0.165,0.456,-3.324,99973.76,35.82,-0.777,-5.470,-19.5561,-0.0900,0.2700,9.8100,0.0625,0.0000,0.0000,-1.0000,-14.7500,-90.5625,-0.0100,0.0100,0.0200,-0.0700,0.2600,9.8000,1,1
3322,1100,44120049,3.562,-5.750,22.562,22.562,0.401,0.555,2.784,99972.59,36.21,-96.426,-97.574,-19.5771,-0.0600,0.2400,9.8300,-0.1250,-0.0625,0.1250,-4.6875,-17.7500,-91.0625,0.0000,0.0000,0.0200,-0.0700,0.2600,9.8000,1,1
3334,1104,44240595,3.562,-5.750,22.562,22.562,0.600,1.131,1.218,99965.76,36.23,-96.387,-97.568,-19.5585,-0.0600,0.2600,9.8100,0.0625,0.0625,-0.0625,-4.0000,-18.1875,-89.7500,0.0000,-0.0200,0.0200,-0.0700,0.2600,9.8000,1,1
3346,1108,44360050,3.562,-5.750,22.562,22.562,0.750,1.170,0.676,99965.30,36.22,-96.334,-97.559,-19.5735,-0.0900,0.2300,9.8300,0.0000,0.0000,0.0625,-3.1875,-18.1875,-91.3750,0.0000,0.0200,0.0300,-0.0700,0.2600,9.8000,1,1
3358,1112,44480695,3.562,-5.750,22.562,22.562,0.376,0.075,-2.751,99978.27,36.23,-96.370,-97.569,-19.5561,-0.0900,0.2700,9.8100,-0.1250,-0.0625,0.0000,-4.6875,-18.5625,-91.0625,0.0000,0.0000,0.0200,-0.0700,0.2600,9.8000,1,1
3370,1116,44601009,3.562,-5.750,22.562,22.562,0.321,-1.353,2.022,99995.20,36.23,-96.329,-97.563,-19.5585,-0.0600,0.2600,9.8100,0.0625,-0.1250,0.0000,-4.2500,-18.1875,-90.1875,0.0000,-0.0100,0.0200,-0.0700,0.2600,9.8000,1,1
3382,1120,44721335,3.562,-5.750,22.562,22.562,0.294,0.506,-1.416,99973.16,36.22,-96.403,-97.580,-19.5980,-0.0500,0.2400,9.8500,0.0000,0.0000,0.0000,-4.0000,-17.3750,-91.8750,0.0000,0.0100,0.0200,-0.0700,0.2600,9.8000,1,1
3391,1123,44821333,3.562,-5.750,22.562,22.562,0.335,-0.850,1.398,99989.23,36.20,-96.350,-97.571,-19.5824,-0.1000,0.2300,9.8400,0.0000,0.0000,0.1250,-3.5625,-18.5625,-90.5625,-0.0100,-0.0100,0.0300,-0.0700,0.2600,9.8000,1,1
3403,1127,44941449,3.562,-5.750,22.562,22.562,0.483,0.404,-0.248,99974.37,36.20,-96.363,-97.576,-19.5473,-0.0600,0.2400,9.8000,0.0000,-0.1250,0.0625,-4.0000,-18.5625,-90.1875,-0.0100,0.0000,0.0100,-0.0700,0.2600,9.8000,1,1
3415,1131,45061009,3.562,-5.750,22.562,22.562,0.435,-0.422,1.336,99984.16,36.23,-96.336,-97.573,-19.5559,-0.0800,0.2500,9.8100,0.1250,0.1250,-0.1250,-4.2500,-17.7500,-90.5625,0.0000,-0.0200,0.0300,-0.0700,0.2600,9.8000,1,1
3427,1135,45181585,3.562,-5.750,22.562,22.562,0.310,-0.260,-1.179,99982.24,36.21,-96.371,-97.581,-19.5563,-0.0700,0.2400,9.8100,0.0000,0.0625,0.1250,-3.5625,-17.3750,-91.0625,0.0000,-0.0200,0.0100,-0.0700,0.2600,9.8000,1,1
3439,1139,45301748,3.562,-5.750,22.562,22.562,0.509,1.163,0.516,99965.38,36.23,-96.378,-97.585,-19.5905,-0.0500,0.2800,9.8400,0.0625,0.1250,0.0000,-4.6875,-18.5625,-90.1875,-0.0100,0.0000,0.0200,-0.0700,0.2600,9.8000,1,1
3451,1143,45421713,3.562,-5.750,22.562,22.562,0.545,0.372,0.998,99974.76,36.22,-96.337,-97.579,-19.5794,-0.0500,0.2600,9.8300,-0.0625,0.0625,0.0000,-4.0000,-18.8750,-91.3750,0.0000,0.0100,0.0200,-0.0700,0.2600,9.8000,1,1
3463,1147,45541678,3.562,-5.750,22.562,22.562,0.520,1.198,-1.099,99964.96,36.22,-96.364,-97.585,-19.5575,-0.0700,0.2600,9.8100,0.1250,0.2500,0.0000,-4.0000,-17.0625,-90.1875,0.0000,-0.0100,0.0200,-0.0700,0.2600,9.8000,1,1
3475,1151,45662051,3.562,-5.750,22.562,22.562,0.150,-0.489,-2.640,99984.96,36.22,-96.406,-97.596,-19.5751,-0.0800,0.2400,9.8300,-0.0625,-0.0625,0.0000,-4.0000,-17.0625,-90.5625,-0.0200,-0.0100,0.0400,-0.0700,0.2600,9.8000,1,1
3484,1154,45760782,3.562,-5.750,22.562,22.562,0.041,-1.063,-0.570,99991.77,36.21,-96.435,-97.603,-19.5678,-0.0600,0.2500,9.8200,0.1250,-0.1250,0.0625,-2.5000,-18.1875,-90.5625,0.0000,-0.0100,0.0200,-0.0700,0.2600,9.8000,1,1
3496,1158,45881931,3.562,-5.750,22.562,22.562,-0.005,-0.383,-0.752,99983.70,36.21,-96.502,-97.617,-19.5476,-0.0700,0.2600,9.8000,-0.0625,0.1250,0.0625,-3.5625,-17.0625,-89.7500,0.0000,-0.0200,0.0200,-0.0700,0.2600,9.8000,1,1
3508,1162,46002640,3.562,-5.750,22.562,22.562,-0.132,-0.731,-0.795,99987.83,36.22,-96.565,-97.630,-19.5543,-0.0900,0.2400,9.8100,0.0000,-0.1875,0.0625,-3.5625,-17.3750,-90.5625,0.0000,-0.0100,0.0200,-0.0700,0.2600,9.8000,1,1
3520,1166,46122067,3.562,-5.750,22.562,22.562,0.030,-0.391,1.520,99983.79,36.23,-96.574,-97.632,-19.5767,-0.0700,0.2500,9.8300,0.0000,-0.0625,0.0625,-3.5625,-18.8750,-90.1875,-0.0100,-0.0200,0.0200,-0.0700,0.2600,9.8000,1,1
3532,1170,46242585,3.562,-5.750,22.562,22.562,-0.072,-0.692,-1.222,99987.37,36.23,-96.622,-97.642,-19.5774,-0.0700,0.2600,9.8300,0.0000,0.1250,0.0000,-3.5625,-18.1875,-90.5625,0.0100,-0.0100,0.0200,-0.0700,0.2600,9.8000,1,1
3544,1174,46362061,3.562,-5.750,22.562,22.562,0.146,0.532,1.549,99972.85,36.23,-96.631,-97.645,-19.5566,-0.0600,0.2300,9.8100,0.0000,0.0000,0.0000,-4.2500,-18.5625,-90.5625,0.0000,-0.0100,0.0400,-0.0700,0.2600,9.8000,1,1
3556,1178,46482703,3.562,-5.750,22.562,22.562,0.167,-0.038,0.113,99979.61,36.23,-96.620,-97.642,-19.5459,-0.0800,0.2500,9.8000,-0.0625,0.0625,0.0000,-3.5625,-17.7500,-90.1875,0.0100,0.0000,0.0100,-0.0700,0.2600,9.8000,1,1
3568,1182,46602872,3.562,-5.750,22.562,22.562,-0.003,-0.377,-1.525,99983.63,36.23,-96.669,-97.652,-19.5662,-0.0700,0.2400,9.8200,0.0000,0.1875,0.0000,-4.2500,-18.1875,-91.0625,0.0000,-0.0100,0.0500,-0.0700,0.2600,9.8000,1,1
3580,1186,46723200,3.562,-5.750,22.562,22.562,0.064,0.099,-0.006,99977.98,36.23,-96.687,-97.656,-19.5668,-0.0700,0.2500,9.8200,-0.0625,0.1250,-0.0625,-3.1875,-18.8750,-91.3750,-0.0100,-0.0100,0.0200,-0.0700,0.2600,9.8000,1,1
3589,1189,46823319,3.562,-5.750,22.562,22.562,0.202,1.317,0.424,99963.55,36.21,-96.704,-97.659,-19.5664,-0.0800,0.2600,9.8200,0.0625,0.0000,-0.0625,-3.1875,-17.7500,-90.1875,0.0000,0.0000,0.0000,-0.0700,0.2600,9.8000,1,1
3601,1193,46943348,3.562,-5.750,22.562,22.562,0.394,0.984,1.119,99967.49,36.21,-96.647,-97.647,-19.5684,-0.0600,0.2600,9.8200,0.0625,0.0625,0.0000,-4.6875,-18.8750,-91.3750,0.0000,0.0000,0.0400,-0.0700,0.2600,9.8000,1,1
3613,1197,47063050,3.562,-5.750,22.562,22.562,0.419,1.141,-0.390,99965.64,36.23,-96.633,-97.645,-19.5877,-0.0600,0.2500,9.8400,0.0625,0.0625,0.0000,-2.8750,-18.5625,-91.0625,0.0000,0.0200,0.0300,-0.0700,0.2600,9.8000,1,1
3625,1201,47183466,3.562,-5.750,22.562,22.562,0.397,1.118,0.467,99965.91,36.23,-96.618,-97.642,-19.5648,-0.0900,0.2500,9.8200,0.0000,0.0625,0.0625,-5.0625,-17.3750,-90.1875,0.0000,-0.0200,0.0100,-0.0700,0.2600,9.8000,1,1
3637,1205,47303754,3.562,-5.750,22.562,22.562,-0.095,-1.295,-2.436,99994.51,36.22,-96.656,-97.649,-19.5658,-0.0800,0.2500,9.8200,0.0000,0.0625,0.0625,-3.5625,-18.5625,-90.5625,0.0000,-0.0200,0.0500,-0.0700,0.2600,9.8000,1,1
3649,1209,47423590,3.562,-5.750,22.562,22.562,-0.018,0.317,-0.858,99975.40,36.25,-96.719,-97.662,-19.5654,-0.0900,0.2600,9.8200,-0.0625,-0.1250,0.0000,-4.0000,-18.8750,-91.0625,0.0100,0.0000,0.0100,-0.0700,0.2600,9.8000,1,1
3661,1213,47543701,3.562,-5.750,22.562,22.562,-0.016,-0.729,1.479,99987.80,36.22,-96.699,-97.658,-19.5678,-0.0600,0.2500,9.8200,0.0625,0.0000,-0.0625,-3.5625,-17.7500,-89.7500,0.0000,-0.0200,0.0400,-0.0700,0.2600,9.8000,1,1
3673,1217,47663049,3.562,-5.750,22.562,22.562,-0.270,-1.610,-0.923,99998.24,36.23,-96.751,-97.668,-19.5690,-0.0600,0.2700,9.8200,0.0625,0.0625,0.1875,-4.6875,-18.8750,-90.1875,0.0100,0.0000,0.0300,-0.0700,0.2600,9.8000,1,1
3682,1220,47762875,3.562,-5.750,22.562,22.562,-0.499,-0.981,-3.345,99990.78,36.21,-96.874,-97.692,-19.5658,-0.0800,0.2500,9.8200,-0.0625,0.0000,0.0625,-3.1875,-18.5625,-89.7500,0.0000,-0.0200,0.0400,-0.0700,0.2600,9.8000,1,1
3694,1224,47884321,3.562,-5.750,22.562,22.562,-0.460,-0.169,-0.592,99981.16,36.22,-96.950,-97.706,-19.5777,-0.0600,0.2500,9.8300,0.0625,0.0625,0.0000,-4.2500,-17.3750,-90.5625,0.0100,0.0000,0.0100,-0.0700,0.2600,9.8000,1,1
3706,1228,48004537,3.562,-5.750,22.562,22.562,-0.301,-0.424,2.389,99984.18,36.22,-96.941,-97.703,-19.5747,-0.0900,0.2500,9.8300,0.0000,-0.0625,-0.0625,-4.2500,-17.3750,-91.0625,0.0000,0.0000,0.0200,-0.0700,0.2600,9.8000,1,1
3718,1232,48123994,3.562,-5.750,22.562,22.562,-0.162,-0.452,1.755,99984.51,36.22,-96.928,-97.700,-19.5767,-0.0700,0.2500,9.8300,-0.0625,0.0000,0.1250,-4.0000,-18.1875,-90.5625,0.0000,-0.0100,0.0000,-0.0700,0.2600,9.8000,1,1
3730,1236,48244467,3.562,-5.750,22.562,22.562,0.101,1.442,0.965,99962.08,36.23,-96.935,-97.699,-19.5585,-0.0600,0.2600,9.8100,0.0000,0.0000,-0.0625,-4.2500,-18.5625,-89.7500,-0.0100,0.0000,0.0100,-0.0700,0.2600,9.8000,1,1
3742,1240,48364029,3.562,-5.750,22.562,22.562,0.177,1.132,0.537,99965.74,36.24,-96.900,-97.692,-19.5887,-0.0500,0.2500,9.8400,0.0625,-0.0625,-0.1250,-4.0000,-18.1875,-90.5625,-0.0100,0.0000,0.0500,-0.0700,0.2600,9.8000,1,1
3754,1244,48484631,3.562,-5.750,22.562,22.562,0.288,0.550,0.918,99972.65,36.24,-96.837,-97.679,-19.5565,-0.0800,0.2600,9.8100,-0.0625,0.0000,-0.0625,-3.5625,-18.5625,-89.7500,0.0000,0.0000,0.0200,-0.0700,0.2600,9.8000,1,1
3766,1248,48604882,3.562,-5.750,22.562,22.562,0.584,0.396,2.819,99974.47,36.23,-96.723,-97.655,-19.5648,-0.0900,0.2500,9.8200,0.0625,-0.1250,0.0000,-4.0000,-17.3750,-90.5625,-0.0100,0.0000,0.0100,-0.0700,0.2600,9.8000,1,1
3778,1252,48725219,3.562,-5.750,22.562,22.562,0.277,0.013,-1.849,99979.01,36.23,-96.742,-97.658,-19.5877,-0.0600,0.2500,9.8400,0.0625,-0.0625,0.0625,-4.6875,-18.8750,-89.7500,0.0000,-0.0100,0.0200,-0.0700,0.2600,9.8000,1,1
3787,1255,48825223,3.688,-5.812,22.596,22.688,0.273,-0.167,-1.443,99981.13,36.22,-96.726,-97.655,-19.5008,-0.2000,-0.3900,9.8100,-0.4375,0.0625,-0.5000,-4.0000,-18.8750,-90.5625,0.2900,-0.8800,0.0500,-0.0500,0.2700,9.8000,1,1
3799,1259,48945316,3.688,-5.812,22.657,22.625,0.237,0.158,-0.221,99977.29,36.22,-96.725,-97.653,-19.5432,-0.1600,0.2100,9.8100,0.3125,-0.1875,0.0000,-2.8750,-17.7500,-90.1875,0.0400,0.0400,0.0300,-0.0500,0.2700,9.8000,1,1
3811,1263,49065135,3.812,-5.812,21.267,17.812,-0.254,-1.545,-2.820,99997.48,36.24,-96.791,-97.665,-19.7898,1.0100,0.3600,9.9300,0.1875,-2.1250,105.1875,-3.5625,-17.7500,-91.0625,0.5900,0.5000,-0.0200,-0.0300,0.2700,9.8000,1,1
3823,1267,49185472,4.375,-5.688,10.437,359.688,-0.026,-0.148,1.377,99980.91,36.23,-96.801,-97.655,-19.2979,-1.0400,0.1300,9.6600,2.1250,-5.9375,136.5000,-12.0625,-20.7500,-89.0000,1.2800,0.7100,0.2500,0.0600,0.2500,9.8000,1,1
3835,1271,49305774,4.625,-5.562,-1.854,350.812,0.172,0.414,1.665,99974.26,36.24,-96.774,-97.656,-19.6764,0.6300,0.0900,9.8800,0.2500,-1.0000,48.5625,-19.8750,-21.8750,-90.1875,0.0200,0.1200,0.0200,0.1100,0.2300,9.8000,1,1
3847,1275,49425585,4.688,-5.500,-9.153,346.250,0.017,-0.323,-1.009,99982.98,36.23,-96.787,-97.659,-19.7328,0.8600,0.6400,9.8700,-0.0625,-0.8125,54.9375,-25.0625,-20.3750,-91.0625,0.0000,0.0700,-0.0600,0.1200,0.2100,9.8000,1,1
3859,1279,49545733,4.812,-5.500,-13.599,344.500,-0.007,0.020,-0.087,99978.92,36.24,-96.806,-97.665,-19.5731,-0.0400,0.2400,9.8300,0.3125,-0.6875,0.2500,-26.5625,-20.0625,-90.5625,-0.1400,0.0200,0.0100,0.1400,0.2200,9.8000,1,1
3871,1283,49665293,4.625,-5.500,-14.477,346.438,0.044,0.615,-0.414,99971.87,36.23,-96.822,-97.672,-19.6839,0.0900,0.3300,9.9200,0.8750,-1.8750,-44.2500,-28.3750,-19.2500,-89.7500,0.1000,0.2700,0.0200,0.1100,0.2200,9.8000,1,1
3880,1286,49763947,4.625,-5.625,-12.611,349.562,0.277,0.923,2.733,99968.23,36.21,-96.777,-97.659,-19.6076,-0.3800,0.1000,9.9100,0.8125,-1.3750,-31.0625,-25.5000,-20.0625,-89.7500,-0.4900,-0.1300,0.1100,0.1100,0.2300,9.8000,1,1
3892,1290,49886338,4.438,-5.688,-8.249,355.250,0.308,1.048,-0.635,99966.74,36.20,-96.758,-97.652,-19.6235,0.1400,0.4000,9.8500,-0.5000,0.7500,-35.7500,-22.8750,-21.5000,-89.7500,-0.3900,-0.0900,0.0600,0.0800,0.2400,9.8000,1,1
3904,1294,50006527,4.188,-5.812,-2.526,4.812,0.565,0.041,3.225,99978.68,36.23,-96.631,-97.630,-19.8165,0.5800,1.2200,9.9400,0.1875,2.9375,-176.7500,-19.8750,-21.5000,-89.3750,-0.2200,0.8800,-0.1500,0.0300,0.2600,9.8000,1,1
3916,1298,50126438,3.625,-5.875,13.601,27.500,0.403,1.270,-2.591,99964.10,36.22,-96.677,-97.630,-19.8006,0.1400,0.6700,10.0100,1.3125,-0.8125,-185.1250,-5.3750,-18.5625,-89.7500,-0.5800,-0.1200,-0.0400,-0.0700,0.2700,9.8000,1,1
3928,1302,50246566,2.750,-5.625,35.774,54.438,0.325,0.236,0.162,99976.37,36.24,-96.641,-97.622,-19.5928,1.3800,-0.6500,9.7400,2.4375,1.8125,-251.8750,4.8750,-12.5625,-89.7500,0.1400,0.0500,-0.4000,-0.2200,0.2300,9.8000,1,1
3940,1306,50366180,2.250,-5.250,60.492,77.875,0.255,-0.620,0.296,99986.51,36.22,-96.615,-97.617,-19.3619,-1.7900,0.7000,9.7400,1.4375,0.1250,-167.7500,12.6875,-1.8750,-90.1875,-0.8200,-0.3900,0.0700,-0.3000,0.1700,9.8000,1,1
3952,1310,50486709,2.000,-4.812,80.483,95.000,0.464,1.119,0.028,99965.90,36.23,-96.610,-97.616,-19.5749,-0.9100,-0.1300,9.8900,1.3125,0.1250,-165.5000,16.0625,14.7500,-89.7500,-0.2500,-0.3900,0.0000,-0.3400,0.1000,9.8000,1,1
3964,1314,50606891,2.125,-4.562,97.475,109.938,0.248,0.273,-1.159,99975.92,36.22,-96.619,-97.631,-19.8338,1.3600,-1.1500,10.0000,4.3750,-4.6250,-227.0000,16.7500,23.3750,-89.0000,-0.1300,-0.2500,-0.0700,-0.3200,0.0500,9.8000,1,1
3976,1318,50727197,2.188,-4.188,115.222,127.812,0.416,0.388,1.706,99974.55,36.24,-96.571,-97.623,-19.5726,-0.1000,-0.0900,9.8100,0.9375,0.0625,-140.1250,10.0625,35.1875,-89.0000,0.5900,0.0400,0.1300,-0.3100,-0.0100,9.8000,1,1
3985,1321,50827326,2.188,-3.875,127.561,138.250,0.220,0.148,-1.695,99977.41,36.20,-96.615,-97.636,-19.5563,-1.3300,-0.2800,9.8800,-0.1875,1.0000,-46.5000,5.6875,40.6875,-88.5625,-0.6900,-0.4100,0.0500,-0.3100,-0.0600,9.8000,1,1
3997,1325,50947345,2.188,-3.688,138.396,145.188,0.306,1.497,-0.922,99961.41,36.22,-96.645,-97.646,-19.5499,-0.1800,0.3200,9.7700,-0.3750,1.1875,-60.4375,2.6875,42.5625,-87.3750,0.4400,0.5800,0.0400,-0.3100,-0.1000,9.8000,1,1
4009,1329,51067065,2.250,-3.625,144.656,148.062,0.409,1.423,1.275,99962.30,36.22,-96.611,-97.644,-19.5841,-0.8200,-0.3400,9.8700,-0.1250,-0.3125,-27.0000,-0.1875,44.8750,-89.3750,0.2400,0.5600,0.0400,-0.3000,-0.1000,9.8000,1,1
4021,1333,51187448,2.312,-3.562,148.209,150.188,0.428,1.114,0.604,99965.95,36.22,-96.582,-97.643,-19.6036,-0.2200,0.1900,9.8300,-0.3750,0.3125,-6.1250,-2.5000,45.5625,-89.0000,0.0800,0.1300,0.0100,-0.2900,-0.1100,9.8000,1,1
4033,1337,51307771,2.438,-4.000,149.248,148.625,0.365,-0.395,0.515,99983.84,36.24,-96.531,-97.638,-19.6054,-0.0600,0.3700,9.8200,-0.3125,-1.6875,44.0625,-1.3750,45.5625,-89.0000,0.0700,0.3700,0.0200,-0.2700,-0.0500,9.8000,1,1
4045,1341,51427186,2.438,-4.312,146.863,145.188,0.350,0.304,-1.053,99975.56,36.23,-96.553,-97.646,-19.6052,-0.1500,0.3900,9.8300,0.0000,0.0625,9.5000,-0.1875,44.5000,-88.1875,0.3200,-0.0800,0.0300,-0.2600,0.0100,9.8000,1,1
4057,1345,51547684,2.562,-4.500,143.762,141.062,0.225,-0.772,-0.310,99988.31,36.24,-96.546,-97.647,-19.5857,-0.1000,0.3800,9.8100,0.3125,0.1250,37.1250,0.8750,43.6875,-89.0000,0.1400,0.3800,0.0100,-0.2500,0.0400,9.8000,1,1
4069,1349,51667134,2.625,-4.688,138.718,134.688,0.180,0.786,-2.190,99969.84,36.22,-96.624,-97.663,-19.5131,-0.2700,0.2500,9.7600,0.3125,-0.1250,53.5625,3.0625,42.1875,-89.3750,-0.6000,1.2300,-0.1100,-0.2300,0.0800,9.8000,1,1
4080,1353,51787821,2.750,-4.875,131.889,124.875,0.072,-0.815,0.742,99988.82,36.23,-96.605,-97.660,-19.7585,0.7100,-0.4400,9.9600,-0.5625,-0.2500,96.5000,7.5000,38.5625,-89.0000,0.2600,0.0300,-0.1900,-0.2100,0.1100,9.8000,1,1
4092,1357,51908536,2.875,-5.062,122.929,116.375,0.115,-0.614,0.704,99986.44,36.23,-96.610,-97.660,-19.6854,-0.2100,0.3700,9.9300,-0.5625,0.3125,83.8750,10.5000,35.1875,-89.7500,0.3300,0.0500,0.0100,-0.1900,0.1400,9.8000,1,1
4104,1361,52027940,3.062,-5.250,113.164,105.562,0.040,-0.711,-0.412,99987.59,36.23,-96.638,-97.668,-19.5664,-0.2200,0.4700,9.8100,-0.3750,0.7500,89.1250,14.1875,28.1875,-90.1875,0.2800,0.5500,0.0700,-0.1700,0.1700,9.8000,1,1
4116,1365,52148448,3.250,-5.438,102.907,94.812,0.003,0.323,-1.280,99975.33,36.22,-96.706,-97.683,-19.5623,0.9800,-1.0200,9.7800,-0.1250,-0.1250,84.2500,15.2500,22.5625,-88.5625,0.4700,-0.2600,0.0400,-0.1300,0.2000,9.8000,1,1
4126,1368,52248466,3.438,-5.500,93.737,85.688,0.035,0.200,0.405,99976.79,36.23,-96.712,-97.684,-19.5260,0.1000,0.3700,9.7500,-0.2500,-0.0625,62.8125,17.8750,17.3750,-89.3750,0.1500,-0.5600,0.0800,-0.0900,0.2200,9.8000,1,1
4137,1372,52358774,3.562,-5.562,86.634,82.438,-0.197,-1.319,-0.596,99994.80,36.23,-96.738,-97.691,-19.6206,0.1300,0.2700,9.8500,0.3125,-1.2500,10.5000,16.3750,12.5625,-90.1875,0.1400,0.2000,-0.0100,-0.0700,0.2200,9.8000,1,1
4149,1376,52478566,5.000,-5.375,82.467,79.375,-0.217,-1.215,0.105,99993.55,36.24,-96.778,-97.717,-20.0559,-0.6100,0.3600,10.3600,0.3125,-47.7500,31.5000,16.3750,10.6875,-90.5625,-0.3800,0.3900,0.2100,0.1700,0.1900,9.8000,1,1
4161,1380,52598702,9.000,-5.375,77.607,73.750,-0.021,0.726,0.598,99970.55,36.23,-96.819,-97.704,-19.2140,1.2400,0.3700,9.3900,3.8125,-7.1250,44.5000,16.7500,7.6875,-93.0625,0.3600,0.3700,-0.3700,0.8500,0.1900,9.7600,1,1
4173,1384,52717146,6.312,-5.312,72.407,69.000,0.263,0.796,2.787,99969.73,36.23,-96.762,-97.679,-19.6018,0.3300,0.2400,9.8400,0.7500,25.3750,32.6875,15.6875,4.3750,-93.0625,-0.0600,0.0500,0.0500,0.4000,0.1900,9.7900,1,1
4184,1388,52839211,4.125,-5.625,67.618,63.062,0.370,-0.257,2.198,99982.20,36.25,-96.677,-97.657,-19.7296,-1.0900,0.3400,10.0800,-0.3125,1.9375,76.3125,8.5625,2.8750,-88.8750,0.3400,0.4400,0.1400,0.0300,0.2400,9.8000,1,1
4196,1392,52959499,4.000,-5.438,58.522,50.312,0.166,0.161,-1.890,99977.25,36.23,-96.721,-97.665,-19.7128,0.6600,0.8900,9.8500,-0.5625,-0.6250,140.2500,5.1875,-1.1875,-90.5625,0.0100,-0.6400,-0.0600,0.0000,0.2000,9.8000,1,1
4208,1396,53079338,4.312,-5.375,46.150,37.250,0.042,-0.168,-0.610,99981.15,36.23,-96.738,-97.665,-19.3462,-1.3700,-0.2900,9.7600,1.3750,-0.6875,108.5625,-1.0625,-9.0000,-89.2500,-3.0700,0.0000,0.3700,0.0500,0.1900,9.8000,1,1
4220,1400,53199469,4.562,-5.188,33.634,25.875,-0.096,0.762,-2.056,99970.12,36.23,-96.819,-97.680,-19.7891,1.6400,-0.0500,9.9100,4.1250,-9.3750,36.5000,-7.3750,-13.7500,-88.8750,0.7300,0.1200,0.0000,0.0900,0.1700,9.8000,1,1
4232,1404,53319173,4.688,-5.125,25.251,19.375,-0.189,-0.937,0.172,99990.26,36.22,-96.811,-97.671,-19.4381,-1.0500,-0.2800,9.8200,-0.2500,0.5625,51.4375,-10.0000,-15.5625,-88.0625,-0.1000,0.2100,0.0300,0.1100,0.1500,9.8000,1,1
4244,1408,53439564,4.688,-5.000,18.382,13.875,-0.208,-0.502,-0.400,99985.10,36.22,-96.853,-97.685,-19.6196,0.0300,0.6200,9.8300,0.2500,-0.8750,43.0625,-15.1875,-17.5000,-89.2500,0.1100,0.4800,0.0400,0.1200,0.1300,9.8000,1,1
4256,1412,53559867,4.938,-5.062,13.821,11.438,-0.269,-0.309,-0.428,99982.82,36.24,-96.905,-97.697,-19.7220,1.0700,0.6500,9.8400,0.0000,-0.9375,16.0625,-17.0625,-19.0000,-88.0625,0.2600,0.3000,0.0400,0.1600,0.1400,9.8000,1,1
4268,1416,53679306,4.750,-5.062,11.500,10.500,-0.095,-0.138,2.145,99980.80,36.24,-96.888,-97.695,-19.5942,-0.0400,0.2800,9.8400,0.1250,-0.3125,0.0000,-18.8750,-17.0625,-88.5000,-0.1700,0.1400,0.0300,0.1300,0.1300,9.8000,1,1
4277,1419,53778807,4.625,-5.062,10.930,10.625,-0.005,0.329,-0.214,99975.26,36.20,-96.887,-97.694,-19.5786,-0.0900,0.2500,9.8300,-0.3125,0.6875,-1.7500,-18.5000,-18.2500,-88.8750,-0.1800,0.1200,0.0000,0.1100,0.1400,9.8000,1,1
4289,1423,53899803,4.562,-5.125,10.756,10.688,-0.268,-0.824,-1.887,99988.92,36.21,-96.928,-97.702,-19.5536,-0.0400,0.2600,9.8000,-0.3125,0.4375,-0.2500,-18.5000,-19.0000,-88.5000,-0.1200,0.1500,0.0000,0.1000,0.1500,9.8000,1,1
4301,1427,54019947,4.500,-5.188,10.707,10.688,-0.223,-0.653,1.070,99986.90,36.22,-96.943,-97.704,-19.5936,-0.0400,0.2700,9.8400,-0.3125,0.9375,0.1250,-17.3750,-18.2500,-88.5000,-0.1100,0.1200,0.0300,0.0800,0.1600,9.8000,1,1
4313,1431,54140466,4.375,-5.188,10.578,10.375,-0.439,-1.307,-1.016,99994.66,36.22,-97.002,-97.715,-19.5945,-0.0500,0.2800,9.8400,0.2500,-0.3750,0.3125,-18.5000,-19.0000,-88.5000,-0.1100,0.1000,0.0300,0.0700,0.1600,9.8000,1,1
4323,1434,54240448,4.375,-5.250,10.446,10.375,-0.222,0.079,-0.017,99978.22,36.22,-97.014,-97.717,-19.5911,-0.0600,0.2600,9.8400,-0.0625,0.0000,0.0000,-19.1875,-18.5625,-88.8750,-0.1200,0.1100,0.0000,0.0600,0.1700,9.8000,1,1
4334,1438,54350586,4.125,-5.250,10.822,11.750,-0.034,0.289,1.414,99975.74,36.21,-96.987,-97.714,-19.6361,-0.3800,1.1300,9.8500,-0.0625,2.1250,-26.3125,-18.0625,-19.0000,-88.8750,-1.0600,1.2300,0.1700,0.0200,0.1700,9.8000,1,1
4346,1442,54470232,4.250,-5.562,19.815,32.188,-0.111,-0.582,-0.079,99986.05,36.23,-96.982,-97.722,-19.4663,-0.1000,-1.5900,9.8600,2.6875,-7.5000,-214.3750,-15.1875,-17.8750,-88.0625,-0.0700,-1.6300,0.0900,0.0400,0.2200,9.8000,1,1
4358,1446,54590687,4.312,-5.625,30.790,35.250,0.251,0.354,2.556,99974.97,36.22,-96.918,-97.711,-19.6161,0.0000,0.3300,9.8600,-0.1875,0.5625,0.0625,-4.3750,-12.2500,-88.0625,-0.0300,0.0700,0.0100,0.0500,0.2300,9.8000,1,1
4370,1450,54711010,4.312,-5.625,33.991,35.250,0.029,0.390,-1.648,99974.54,36.23,-96.955,-97.717,-19.5657,0.0000,0.3200,9.8100,0.0625,-0.3750,-0.1250,-5.1875,-12.2500,-89.2500,-0.0800,0.0400,0.0300,0.0500,0.2400,9.8000,1,1
4379,1453,54810995,4.250,-5.625,34.827,35.375,-0.055,0.462,-1.753,99973.69,36.19,-96.988,-97.723,-19.5754,0.0000,0.3100,9.8200,-0.0625,0.1250,0.0000,-4.0625,-12.6875,-87.6875,-0.0500,0.0600,0.0300,0.0500,0.2400,9.8000,1,1
4391,1457,54931319,4.500,-5.688,34.401,29.938,-0.157,-0.302,-0.790,99982.73,36.20,-96.993,-97.718,-19.0436,-4.4200,-0.0900,9.7600,1.6250,-0.8125,305.3125,-4.3750,-12.2500,-87.6875,-5.8800,-4.3200,-0.0500,0.0900,0.2400,9.8000,1,1
4403,1461,55051349,15.625,-6.125,18.030,8.312,-0.153,-0.161,-0.383,99981.06,36.20,-97.010,-97.748,-18.4041,0.4900,0.0500,8.9100,-39.0625,-198.8125,63.9375,-18.8750,-19.0000,-87.2500,-1.3000,-1.9900,-0.8900,1.9700,0.3100,9.6000,1,1
4413,1464,55151448,24.250,9.688,7.764,355.750,-0.198,0.715,-1.600,99970.69,36.21,-97.054,-97.654,-17.0885,2.3800,-3.8900,10.3000,-184.1875,-44.8750,285.0625,-17.0625,-19.6875,-91.3750,-0.4800,-3.3000,1.0100,3.4000,-2.2200,8.9200,1,1
4424,1468,55261655,20.875,31.750,-9.740,339.375,-0.095,-0.004,0.995,99979.20,36.22,-96.994,-97.114,-13.3983,5.7200,-3.1500,9.5100,-127.6875,-138.0000,-96.4375,-31.0625,-22.2500,-100.3750,1.4700,3.3100,1.1800,2.8500,-5.5200,7.5800,1,1
4436,1472,55379683,72.625,-32.625,48.311,126.875,0.054,0.821,0.993,99969.43,36.21,-96.864,-96.203,-13.5697,1.5900,2.5200,3.5000,-36.5625,-499.0625,-814.7500,-11.7500,-21.1875,-108.5625,-7.5400,0.8300,0.3600,9.0800,2.8300,2.3600,1,1
4448,1476,55501685,20.438,-103.000,109.066,147.875,-0.030,0.130,-0.261,99977.62,36.22,-96.631,-95.175,-11.7055,3.1300,11.1900,1.2900,-353.1875,-249.3750,-27.6875,12.2500,23.0000,-133.0000,0.8500,3.7900,1.8100,2.7800,9.2900,-1.4300,1,1
4460,1480,55621017,52.125,-57.938,150.943,226.188,0.033,0.907,-0.827,99968.41,36.21,-96.375,-95.070,-24.5427,10.7200,15.1200,-2.1000,-225.5000,20.7500,479.7500,-4.3750,46.3750,-137.0625,4.1100,9.7300,-5.5100,7.7000,4.4900,4.0700,1,1
4472,1484,55741821,49.750,60.500,169.105,144.688,0.011,0.361,0.245,99974.88,36.22,-96.121,-94.484,-6.4044,6.0700,2.2700,3.2300,118.6875,-124.6250,661.7500,15.5625,33.3750,-130.5625,-1.2100,8.3600,-0.6100,7.0200,-6.1800,2.9100,1,1
4481,1487,55841425,10.375,33.938,141.459,8.250,0.289,0.275,1.893,99975.91,36.19,-95.761,-93.641,-16.6246,-1.2300,1.7100,7.2000,477.8125,144.9375,299.0625,-2.1875,-2.5625,-126.3750,-2.4800,6.3600,-0.4500,1.0900,-6.0200,7.6500,1,1
4493,1491,55962517,-0.188,-23.250,42.678,0.188,0.376,-0.482,1.974,99984.87,36.21,-95.354,-93.776,-17.9346,-4.2600,7.1300,10.7000,347.1875,36.8125,140.0625,-17.2500,-52.2500,-40.6875,-5.9700,4.4800,2.0500,-0.7200,3.1900,9.2400,1,1
4505,1495,56081038,22.375,-67.188,7.553,351.562,0.630,1.317,0.622,99963.55,36.21,-95.026,-93.579,-19.2820,2.6100,12.3600,14.6300,350.4375,-335.9375,175.0625,-19.8750,-21.0625,-9.2500,-2.1100,2.8500,10.5100,3.5000,8.4200,3.5800,1,1
4517,1499,56202060,46.688,-144.062,8.733,348.188,0.368,0.139,-1.660,99977.52,36.21,-94.681,-92.445,-3.7794,0.4300,8.3400,2.4600,154.3125,-581.5000,329.3750,9.8750,-4.3750,-9.3750,-6.4900,2.0000,7.1200,6.6500,4.6400,-5.5100,1,1
4527,1502,56302552,20.625,-157.938,-25.746,323.875,0.330,-1.184,0.789,99993.20,36.19,-94.267,-91.183,-7.8447,-0.1600,5.5600,0.1000,-465.8125,-332.3125,334.6875,26.5000,-22.5000,-43.0625,-2.1800,2.7600,8.7800,2.8100,4.1600,-8.4200,1,1
4538,1506,56412754,29.500,-93.188,63.490,148.875,0.197,-0.170,-1.365,99981.18,36.21,-93.792,-89.802,-10.3654,1.0800,16.2200,1.5600,-686.6875,-52.2500,314.6875,6.7500,-23.8750,-63.1875,-1.6700,6.2700,1.9400,4.2200,8.8400,0.1500,1,1
4550,1510,56530686,59.125,-47.500,153.584,215.000,-0.039,-1.080,-1.827,99991.97,36.20,-93.283,-90.151,-27.1979,13.6600,10.3700,3.7700,-21.8125,-16.3125,464.8750,10.2500,24.1875,-39.5625,5.6100,6.5300,-0.3000,8.3500,3.1400,4.0500,1,1
4562,1514,56652305,42.000,54.000,152.316,41.562,0.029,0.846,-1.076,99969.13,36.18,-92.872,-89.554,-8.0513,3.4800,2.1400,0.5000,159.7500,62.1875,662.8750,22.8750,1.1875,-39.5000,-3.8000,9.1300,-4.1800,6.0300,-6.5700,4.0600,1,1
4575,1518,56782430,-7.312,2.938,68.909,2.375,0.350,1.894,1.788,99956.71,36.17,-92.292,-89.286,-20.2427,-0.9700,4.7900,11.1000,567.8750,113.2500,85.8125,-3.5625,-42.5625,-5.1875,1.4000,8.4800,1.1300,-1.9200,-1.2100,9.5300,1,1
4587,1522,56903348,-2.562,-50.125,19.699,0.188,0.068,-0.844,-0.392,99989.16,36.20,-91.814,-89.049,-14.6675,-2.8900,10.4500,11.5200,383.4375,-201.8750,86.0625,-13.5625,-28.5000,29.0625,-1.0400,3.4900,4.9500,-1.1200,6.9900,6.7700,1,1
4599,1526,57023169,35.375,-93.812,4.894,1.375,0.286,0.887,0.237,99968.65,36.19,-91.385,-88.581,-10.7161,2.0600,10.1100,13.9600,191.8125,-599.2500,165.6250,-3.1875,-4.3750,42.5625,-3.6400,1.6200,14.0800,5.1000,8.3700,0.0500,1,1
4611,1530,57143450,26.250,-155.250,-9.345,304.375,0.010,-1.174,-0.817,99993.07,36.19,-90.873,-87.131,-7.4105,-0.2500,5.3400,0.1800,-74.0625,-495.2500,313.8750,36.5000,2.7500,7.3750,-4.5500,0.6700,7.9900,3.7200,4.3900,-7.9300,1,1
4623,1534,57263773,17.062,-119.938,33.464,147.875,0.216,-0.083,1.277,99980.14,36.19,-90.248,-85.731,-5.5493,-2.5900,10.1300,1.1100,-670.5000,-232.8125,235.0625,25.0000,-15.7500,-31.0000,-5.7600,2.5300,6.6900,2.2200,8.6000,-4.1400,1,1
4635,1538,57381749,48.562,-70.750,113.351,139.750,0.072,-0.169,-0.846,99981.16,36.18,-89.640,-85.544,-24.6350,11.9900,14.9200,-0.8200,-199.0625,42.6250,314.5000,13.2500,20.3750,-35.0000,5.1100,8.5200,-3.6000,7.2100,5.8900,3.0500,1,1
4647,1542,57503187,69.000,47.812,171.933,167.062,0.245,-0.692,2.058,99987.36,36.19,-89.054,-85.816,-5.1145,10.7700,4.6800,1.4700,75.4375,-81.6875,602.1875,28.7500,15.0625,-28.6875,0.7100,7.3100,-0.8100,8.8900,-3.2600,2.5400,1,1
4659,1546,57623199,14.688,49.875,153.453,161.688,0.364,1.201,0.367,99964.93,36.18,-88.522,-84.675,-11.4812,1.0700,4.4200,2.8400,446.9375,111.4375,373.2500,24.6875,-17.5000,-32.0625,-1.2600,11.2700,-3.1700,1.2700,-7.3800,6.3200,1,1
4671,1550,57744230,10.750,-3.000,45.963,5.312,0.192,0.310,-0.244,99975.49,36.19,-87.988,-84.982,-26.9984,2.4100,-1.6100,17.7000,248.2500,-271.9375,-71.2500,-0.1875,-41.8750,6.7500,1.1800,-0.6400,7.9400,1.1500,-0.2200,9.7300,1,1
4680,1553,57844337,13.750,-17.062,20.744,1.000,-0.078,-1.205,-1.741,99993.45,36.18,-87.665,-85.466,-24.0184,0.1500,1.4600,14.9000,10.3125,25.3125,129.0625,7.2500,-30.0625,24.6875,-1.2500,0.0600,4.6000,1.6600,2.1400,9.4200,1,1
4692,1557,57964518,16.812,-18.875,5.211,359.000,0.190,-0.246,1.778,99982.07,36.18,-87.310,-85.657,-19.6338,-0.4700,3.8300,9.8600,-6.7500,2.0000,7.7500,2.0625,-28.0625,25.8750,-2.9400,1.2400,0.7900,2.1800,2.4200,9.2400,1,1
4704,1561,58084459,13.188,-11.438,-0.729,355.562,-0.084,-0.329,-1.850,99983.05,36.18,-87.112,-86.017,-19.4043,-1.0200,1.3200,9.9600,-35.3125,1.1250,32.8750,2.6875,-31.8750,23.5625,-2.2400,0.0600,0.3300,1.5600,1.2100,9.6000,1,1
4714,1564,58184453,12.375,-2.938,-3.074,356.688,0.009,-0.234,-0.309,99981.93,36.18,-86.934,-86.117,-18.2653,-0.2300,1.2000,8.4200,-182.8125,41.0000,4.8125,0.5000,-33.7500,21.0625,0.3600,2.3900,-1.4300,1.4300,-0.2200,9.6900,1,1
4725,1568,58294586,7.250,-2.188,-4.647,353.625,-0.110,-0.159,-1.124,99981.04,36.19,-86.839,-86.546,-19.4794,-0.4300,-0.8300,9.8800,1.3125,-4.6875,10.9375,-1.3750,-36.6875,15.5000,-0.4900,0.0700,0.0100,0.5600,-0.3500,9.7800,1,1
4737,1572,58414754,7.250,-2.188,-5.945,353.812,-0.294,-1.490,0.486,99996.82,36.20,-86.749,-86.794,-19.6650,-0.3500,1.0100,9.8300,0.9375,-4.1250,-2.2500,-1.6875,-36.2500,16.2500,-0.6500,1.4000,0.0500,0.5600,-0.3500,9.7800,1,1
4749,1576,58534685,6.938,-1.875,-8.238,349.438,-0.181,-0.597,-0.221,99986.24,36.20,-86.717,-87.046,-19.6581,0.4400,0.0400,9.9100,-0.1250,0.8125,20.6875,-3.5625,-37.3750,16.2500,-0.3300,0.3900,0.0400,0.5000,-0.4000,9.7800,1,1
4761,1580,58654685,6.188,-2.688,-10.084,349.188,0.102,1.549,0.646,99960.80,36.19,-86.711,-87.296,-19.5501,-0.0300,0.2100,9.7900,0.1250,0.2500,0.1250,-3.5625,-36.2500,17.5000,-0.4700,0.5300,0.0100,0.3800,-0.2700,9.7900,1,1
4773,1584,58784394,4.750,-4.312,-10.607,349.188,0.070,1.506,-0.576,99961.31,36.17,-86.732,-87.567,-19.6136,-0.0500,0.2700,9.8500,0.3125,0.0625,-0.0625,-4.0000,-36.2500,16.6875,-0.1600,0.2500,0.0100,0.1200,0.0100,9.8000,1,1
4785,1588,58905330,4.625,-4.438,-10.178,350.250,-0.024,-0.842,1.165,99989.15,36.19,-86.707,-87.803,-19.4738,-0.6800,0.0100,9.7800,0.1875,0.1250,-0.1250,-4.2500,-35.8750,16.2500,-0.1300,0.2200,0.0000,0.1000,0.0400,9.8000,1,1
4797,1592,59024933,4.375,-4.688,-9.871,350.250,-0.017,0.852,-1.936,99969.06,36.18,-86.823,-88.061,-19.5557,-0.0700,0.2100,9.8000,0.1250,0.1250,0.0625,-4.2500,-35.5625,16.2500,-0.1200,0.1000,0.0200,0.0600,0.0800,9.8000,1,1
4809,1596,59145442,4.312,-4.812,-9.784,350.250,-0.062,-1.135,1.624,99992.61,36.18,-86.846,-88.296,-19.5689,-0.0500,0.2500,9.8100,0.0000,-0.1250,0.0625,-3.1875,-35.8750,17.0625,-0.1200,0.1200,0.0100,0.0500,0.0900,9.8000,1,1
4819,1599,59245472,4.250,-4.812,-9.762,350.250,0.271,0.820,0.722,99969.45,36.19,-86.894,-88.491,-19.5771,-0.0600,0.2300,9.8200,0.0000,0.1875,-0.0625,-4.0000,-35.8750,16.2500,-0.1300,0.1100,0.0000,0.0400,0.1000,9.8000,1,1
4830,1603,59355585,4.188,-4.875,-9.754,350.250,0.095,-0.947,-0.114,99990.38,36.20,-86.968,-88.707,-19.5593,-0.0300,0.2300,9.8000,-0.5625,0.0625,0.0625,-3.1875,-36.2500,15.8750,-0.1100,0.1100,0.0100,0.0400,0.1100,9.8000,1,1
4842,1607,59474742,4.188,-4.938,-9.751,350.250,0.057,-0.081,-0.537,99980.12,36.20,-87.121,-88.950,-19.5758,-0.0500,0.2200,9.8200,-0.1250,-0.1250,0.0625,-4.0000,-36.2500,17.0625,-0.0900,0.1100,0.0200,0.0300,0.1100,9.8000,1,1
4854,1611,59595684,4.125,-4.938,-9.750,350.250,0.253,-0.158,2.396,99981.03,36.19,-87.192,-89.173,-19.5936,-0.0800,0.2200,9.8400,0.0625,0.1250,-0.0625,-4.2500,-35.5625,16.2500,-0.0800,0.0800,-0.0100,0.0200,0.1200,9.8000,1,1
4866,1615,59715944,4.125,-5.000,-9.684,350.500,0.160,-1.019,-0.391,99991.24,36.19,-87.311,-89.398,-19.5732,-0.1400,0.3000,9.8200,0.5000,-1.3750,-4.3750,-4.0000,-36.2500,15.5000,-0.3300,0.1200,0.0300,0.0200,0.1200,9.8000,1,1
4875,1618,59815995,4.188,-5.000,-9.615,350.188,0.165,0.346,-1.325,99975.05,36.18,-87.476,-89.595,-19.5414,-0.1000,0.2300,9.7900,0.1875,-0.8750,10.3125,-3.1875,-35.8750,15.8750,0.3500,0.3000,0.0800,0.0300,0.1300,9.8000,1,1
4887,1622,59935940,4.312,-5.062,-9.836,350.125,0.093,-1.095,0.771,99992.13,36.19,-87.599,-89.813,-19.6095,0.3100,0.4200,9.8100,0.0625,-0.0625,-0.8125,-3.5625,-35.8750,16.2500,0.6200,0.4600,0.0300,0.0500,0.1400,9.8000,1,1
4899,1626,60056348,4.250,-5.062,-9.106,351.188,0.103,-0.317,0.223,99982.92,36.18,-87.788,-90.033,-19.6258,0.7200,0.2800,9.8000,0.0000,-0.9375,7.8125,-2.7500,-35.5625,16.2500,0.9500,-0.0700,0.0000,0.0400,0.1400,9.8000,1,1
4911,1630,60176263,4.000,-4.938,-8.529,352.188,0.376,0.301,2.410,99975.59,36.19,-87.897,-90.239,-19.6007,0.3900,0.4400,9.7900,0.1250,-0.1875,-8.2500,-3.1875,-36.2500,17.0625,0.2400,0.2500,-0.0300,0.0000,0.1200,9.8000,1,1
4923,1634,60296595,4.000,-5.000,-7.263,354.000,0.005,-0.266,-2.754,99982.30,36.18,-88.135,-90.465,-19.7382,-0.0100,0.2100,9.9800,-0.4375,1.9375,-21.3750,-2.5000,-37.0000,15.8750,-0.3400,0.0200,-0.0300,0.0000,0.1300,9.8000,1,1
4935,1638,60416772,4.000,-5.000,-4.526,359.125,-0.048,-0.160,-0.494,99981.05,36.19,-88.343,-90.681,-19.6347,-0.2000,0.3900,9.8800,0.7500,-0.4375,-92.8125,-1.0000,-35.8750,15.5000,0.2900,0.3500,0.1700,0.0000,0.1300,9.8000,1,1
4947,1642,60536704,3.812,-5.062,3.550,10.562,0.365,1.328,1.421,99963.42,36.18,-88.488,-90.876,-19.6379,-1.0700,0.1000,9.9800,0.5625,0.6875,-91.9375,6.0625,-36.5625,15.0000,-1.5800,-0.9300,-0.1300,-0.0300,0.1400,9.8000,1,1
4959,1646,60656686,3.562,-5.062,15.566,25.812,0.376,0.500,0.288,99973.23,36.19,-88.627,-91.065,-19.5723,-0.4800,0.7300,9.8200,1.1875,-0.4375,-111.0000,12.6875,-34.7500,16.6875,0.0100,0.2900,0.0500,-0.0700,0.1400,9.8000,1,1
4971,1650,60777111,3.375,-5.062,29.253,39.312,0.094,-0.327,-1.563,99983.04,36.19,-88.842,-91.269,-19.6471,0.4600,0.4300,9.8300,0.8125,0.8750,-98.2500,19.7500,-31.0625,16.2500,0.4000,0.1400,-0.0100,-0.1100,0.1400,9.8000,1,1
4979,1653,60877137,3.375,-5.125,38.688,48.875,0.070,-0.394,-0.580,99983.83,36.18,-89.006,-91.427,-19.6014,0.1700,0.2700,9.8200,1.0625,-1.4375,-95.6875,25.0000,-26.2500,16.6875,0.4000,0.1900,0.0000,-0.1000,0.1500,9.8000,1,1
4991,1657,60997323,3.250,-5.062,47.752,51.500,0.413,1.424,1.291,99962.28,36.19,-89.168,-91.612,-19.5839,-0.0700,0.3100,9.8200,0.2500,-0.3125,-0.6875,29.3750,-21.3750,16.2500,-0.0600,0.1800,0.0400,-0.1200,0.1400,9.8000,1,1
5003,1661,61117629,3.438,-5.125,51.308,53.312,0.293,0.850,-1.334,99969.09,36.18,-89.353,-91.793,-19.5707,-0.2100,0.3300,9.8200,0.1875,-0.2500,-18.0000,30.5625,-20.6875,17.5000,-0.2600,0.0700,0.0000,-0.1000,0.1500,9.8000,1,1
5013,1664,61217655,3.438,-5.125,54.150,56.562,0.287,0.269,1.212,99975.97,36.18,-89.480,-91.937,-19.5676,-0.1200,0.3100,9.8100,-0.6250,1.0000,-0.0625,30.5625,-19.5625,15.8750,0.0700,0.2100,0.0200,-0.1000,0.1500,9.8000,1,1
5024,1668,61326664,3.188,-5.062,55.509,55.688,0.342,0.145,1.562,99977.44,36.18,-89.605,-92.086,-19.5220,-0.1300,0.1800,9.7700,-1.4375,2.4375,23.1875,31.5625,-18.5000,16.2500,0.4800,0.3700,0.0900,-0.1300,0.1400,9.8000,1,1
5036,1672,61447566,3.438,-5.125,51.367,44.312,0.203,0.027,-1.046,99978.84,36.19,-89.807,-92.265,-19.7023,1.1600,0.1500,9.8400,-1.2500,-1.0625,177.0625,29.0625,-21.0625,17.5000,1.1400,0.9500,0.0800,-0.0900,0.1500,9.8000,1,1
5048,1676,61567908,4.125,-5.250,35.444,19.875,0.124,0.474,-1.593,99973.55,36.19,-90.030,-92.440,-19.6389,0.3000,0.3000,9.8500,-0.3125,1.3750,270.3125,22.3750,-28.8750,16.6875,-0.1200,0.2100,0.1000,0.0200,0.1700,9.8000,1,1
5060,1680,61687307,4.625,-4.938,8.905,347.750,0.288,1.185,0.459,99965.12,36.20,-90.200,-92.597,-19.4909,-0.9500,-0.4400,9.8700,1.6875,-3.6875,230.1875,1.1875,-37.0000,16.2500,-1.1800,-0.5900,0.1200,0.1100,0.1200,9.8000,1,1
5071,1684,61818010,4.438,-4.312,-17.738,317.562,0.190,0.313,0.555,99975.45,36.17,-90.389,-92.774,-19.5451,-0.8500,0.7700,9.8000,-2.2500,-0.1250,235.0625,-13.1875,-34.7500,16.2500,-0.5900,0.8700,0.0700,0.0700,0.0200,9.8000,1,1
5083,1688,61937823,4.562,-4.250,-42.935,303.562,0.058,0.118,-1.353,99977.76,36.18,-90.595,-92.924,-19.6205,-0.4800,0.3500,9.8800,0.0000,-0.1250,75.8750,-27.0000,-24.0625,16.2500,-0.8700,0.4600,-0.0400,0.1000,0.0000,9.8000,1,1
5095,1692,62057952,4.500,-4.125,-55.030,298.875,0.017,0.396,-0.580,99974.47,36.19,-90.799,-93.081,-19.7190,0.8300,0.6200,9.8600,-1.1250,1.0625,34.5625,-30.2500,-20.6875,17.0625,0.3700,0.4200,0.0300,0.0900,-0.0200,9.8000,1,1
5107,1696,62177426,4.562,-4.188,-59.638,298.500,-0.046,0.175,-0.656,99977.09,36.19,-90.996,-93.231,-19.5764,-0.1000,0.1800,9.8200,0.1875,-0.2500,0.8125,-30.5625,-19.1875,17.0625,-0.1900,0.2300,0.0500,0.1000,-0.0100,9.8000,1,1
5117,1699,62277436,4.500,-4.250,-60.165,300.062,0.104,1.423,0.153,99962.29,36.20,-91.141,-93.348,-19.5427,-0.1700,0.2000,9.7900,0.1875,-0.2500,-9.9375,-29.5000,-18.8750,16.2500,-0.5600,0.1400,0.0000,0.0800,0.0000,9.8000,1,1
5128,1703,62388180,4.500,-4.312,-57.981,304.938,-0.037,-0.277,0.381,99982.45,36.18,-91.287,-93.472,-19.5634,-0.0400,0.4800,9.7800,0.4375,-0.1250,-32.4375,-28.0625,-21.7500,17.5000,-0.0800,0.0100,0.1000,0.0800,0.0100,9.8000,1,1
5140,1707,62508689,4.375,-4.438,-53.251,311.312,0.112,1.381,-0.559,99962.79,36.19,-91.478,-93.610,-19.7335,0.0900,1.0300,9.9000,-0.1875,1.0625,-87.0000,-27.2500,-22.1875,17.0625,-0.1600,0.1300,0.0300,0.0600,0.0300,9.8000,1,1
5152,1711,62627955,4.188,-4.750,-39.547,335.938,0.209,0.593,1.325,99972.13,36.20,-91.588,-93.742,-19.4535,-0.0100,0.6400,9.6600,3.3125,-0.2500,-355.1250,-25.0625,-25.5000,17.0625,-0.6500,0.0200,0.1700,0.0400,0.0900,9.8000,1,1
5164,1715,62748828,3.750,-5.062,-4.103,26.625,0.066,-0.082,-1.599,99980.13,36.19,-91.760,-93.868,-19.5523,-1.0200,0.5400,9.8600,-0.0625,5.3750,-373.9375,3.0625,-36.5625,16.6875,0.4300,0.2100,0.0400,-0.0400,0.1400,9.8000,1,1
5173,1718,62849319,3.625,-5.188,26.184,53.125,0.307,0.725,2.156,99970.57,36.19,-91.843,-93.966,-19.6336,0.1800,0.9600,9.8100,2.1250,-3.8750,-177.5625,23.0625,-27.3750,17.5000,0.1300,0.3300,0.0100,-0.0600,0.1600,9.8000,1,1
5184,1722,62958942,3.562,-5.188,52.717,71.250,0.316,0.215,0.037,99976.62,36.19,-91.948,-94.071,-19.6643,0.3500,0.5700,9.8500,0.3750,-0.1250,-128.6250,30.8750,-18.0625,17.0625,0.0200,0.2600,0.0500,-0.0700,0.1600,9.8000,1,1
5196,1726,63079263,3.438,-5.125,69.795,79.000,0.462,0.254,1.593,99976.15,36.20,-92.028,-94.176,-19.5995,0.4300,0.0200,9.8100,0.3750,0.3125,-59.6875,35.0000,-11.3750,18.2500,0.1400,0.0800,-0.0300,-0.0900,0.1500,9.8000,1,1
5208,1730,63199466,3.375,-5.250,78.960,84.000,0.287,-0.271,-1.497,99982.37,36.20,-92.173,-94.290,-19.5838,-0.2300,0.6200,9.8200,-0.1250,0.2500,-20.0000,35.3750,-6.2500,16.6875,-0.3100,0.4000,0.0300,-0.1100,0.1700,9.8000,1,1
5220,1734,63319758,3.312,-5.312,83.547,85.562,0.037,-0.482,-2.519,99984.88,36.19,-92.364,-94.410,-19.5968,-0.0400,0.3900,9.8300,0.1250,0.1250,0.0000,36.0625,-4.3750,16.6875,0.0800,0.2000,0.0200,-0.1200,0.1800,9.8000,1,1
5232,1738,63439164,3.500,-5.500,84.383,82.938,0.125,-0.592,0.404,99986.18,36.18,-92.484,-94.513,-19.6014,0.1600,0.5400,9.8100,-0.3750,0.8125,56.8125,36.5000,-4.3750,18.2500,0.1000,0.2200,0.0000,-0.0900,0.2200,9.8000,1,1
5244,1742,63559701,3.375,-5.312,78.805,70.250,0.055,-0.215,-0.309,99981.71,36.19,-92.647,-94.633,-19.9530,2.1600,1.3000,9.9300,-2.5625,1.6875,217.0625,35.6875,-7.3750,17.0625,0.6000,0.4400,-0.0800,-0.1100,0.1800,9.8000,1,1
5256,1746,63678932,3.625,-5.250,61.903,47.750,0.208,0.834,0.105,99969.27,36.18,-92.785,-94.732,-19.3962,0.0300,0.2600,9.6300,-5.1250,5.0000,251.8750,31.6875,-16.2500,16.6875,0.3500,0.5600,-0.1200,-0.0600,0.1700,9.8000,1,1
5268,1750,63809815,4.062,-5.062,38.783,19.625,0.384,0.466,2.449,99973.63,36.17,-92.848,-94.816,-19.6047,0.2000,0.3300,9.8200,-1.6250,-0.5625,196.8750,20.1875,-31.0625,16.2500,-0.3400,0.6700,0.0100,0.0100,0.1400,9.8000,1,1
5280,1754,63929482,4.312,-4.812,15.117,0.188,0.170,-1.438,0.724,99996.20,36.18,-92.934,-94.904,-19.5807,-0.6000,0.3600,9.8600,-3.7500,-1.5625,138.4375,8.6875,-35.1875,16.2500,-0.4100,0.0700,0.0000,0.0600,0.0900,9.8000,1,1
5292,1758,64049941,4.438,-4.688,-1.606,347.500,0.145,0.700,-1.945,99970.86,36.19,-93.125,-95.008,-19.6333,-0.0300,0.2800,9.8700,0.0000,-1.0000,100.0625,-3.5625,-35.8750,16.2500,0.2000,0.7000,0.2000,0.0700,0.0700,9.8000,1,1
5304,1762,64170644,4.438,-4.438,-16.124,332.812,0.196,0.719,0.331,99970.64,36.18,-93.233,-95.101,-19.8921,0.1700,0.9400,10.0600,-1.0000,-0.3125,109.8125,-10.2500,-35.5625,15.5000,-0.4600,0.4700,-0.3200,0.0800,0.0300,9.8000,1,1
5316,1766,64290152,4.500,-4.250,-28.375,323.812,0.317,0.266,1.327,99976.02,36.20,-93.294,-95.164,-19.2876,-1.3900,-0.3800,9.6700,-4.8750,4.7500,58.6875,-19.5000,-31.7500,15.5000,-1.7500,-0.1100,0.0000,0.0800,0.0100,9.8000,1,1
5328,1770,64410684,4.688,-4.312,-34.902,322.250,0.348,0.929,-0.237,99968.15,36.20,-93.404,-95.244,-19.5610,-0.0200,0.2000,9.8000,0.3750,-0.8125,0.0000,-21.3750,-30.0000,15.8750,-0.1800,0.1700,0.0100,0.1200,0.0100,9.8000,1,1
5340,1774,64529143,4.625,-4.438,-36.946,322.250,0.406,0.720,0.258,99970.62,36.20,-93.477,-95.317,-19.5967,-0.0700,0.2100,9.8400,0.0625,0.1875,-0.0625,-22.0625,-29.5625,17.5000,-0.1800,0.1800,0.0400,0.1000,0.0300,9.8000,1,1
5352,1778,64650829,4.500,-4.500,-37.466,322.438,0.562,-0.236,2.891,99981.95,36.20,-93.475,-95.373,-19.5986,-0.0500,0.2100,9.8400,-0.0625,0.2500,0.0000,-21.0000,-29.5625,16.6875,-0.1500,0.1500,0.0100,0.0900,0.0400,9.8000,1,1
5364,1782,64771039,4.500,-4.562,-36.977,324.000,0.327,0.226,-1.931,99976.48,36.18,-93.619,-95.457,-19.5689,-0.0600,0.3600,9.8000,1.0625,-1.6250,-24.6875,-21.3750,-29.5625,17.0625,-0.0100,0.0000,0.0100,0.0800,0.0600,9.8000,1,1
5374,1785,64871139,4.438,-4.688,-35.452,326.500,0.258,0.759,-2.392,99970.16,36.18,-93.734,-95.524,-19.5379,-0.5400,-0.0300,9.8400,0.2500,-0.4375,-39.6250,-20.5625,-30.0000,16.6875,0.1100,0.3500,0.0700,0.0700,0.0700,9.8000,1,1
5386,1789,64990995,4.250,-4.875,-27.474,343.312,0.080,0.350,-1.296,99975.02,36.18,-93.865,-95.600,-19.5105,-0.2900,0.0100,9.7900,0.1250,3.1250,-191.0625,-15.7500,-34.0625,17.0625,-0.2400,-0.4800,-0.0200,0.0400,0.1000,9.8000,1,1
5396,1792,65091069,4.062,-5.000,-13.749,358.938,-0.123,-0.531,-1.483,99985.46,36.18,-93.985,-95.664,-19.7843,0.6400,0.3500,9.9600,-2.3125,6.6875,-121.0625,-4.2500,-37.7500,17.5000,0.1400,-0.0700,0.0100,0.0100,0.1300,9.8000,1,1
5407,1796,65201586,3.938,-5.000,-1.698,5.562,0.289,0.629,2.534,99971.70,36.19,-94.016,-95.715,-19.5573,0.3000,0.3600,9.7600,-0.1250,0.5000,-28.8125,2.0000,-36.2500,14.6875,-0.0300,0.5200,0.0000,-0.0100,0.1300,9.8000,1,1
5419,1800,65321773,4.000,-5.062,3.534,5.438,0.360,1.284,0.816,99963.95,36.19,-94.100,-95.783,-19.5451,-0.2100,0.1300,9.8100,-0.2500,0.5000,0.0000,3.5000,-37.3750,17.0625,-0.0200,0.1100,0.0200,0.0000,0.1400,9.8000,1,1
5431,1804,65441316,4.000,-5.062,4.863,5.062,0.423,-0.226,1.096,99981.84,36.19,-94.105,-95.826,-19.5367,-1.1800,-1.1900,9.9800,0.6250,-2.1250,7.8125,3.5000,-37.7500,17.0625,0.7300,-0.6400,0.2300,0.0000,0.1400,9.8000,1,1
5443,1808,65561822,4.000,-5.125,4.353,4.250,0.118,-0.073,-2.139,99980.03,36.19,-94.252,-95.915,-19.9196,-0.1300,0.0000,10.1900,2.1250,-6.0625,-7.3125,2.6875,-37.0000,16.6875,-1.0200,-0.6600,-0.0100,0.0000,0.1500,9.8000,1,1
5455,1812,65681420,6.000,-5.000,4.552,4.688,0.150,0.259,-0.309,99976.09,36.18,-94.346,-95.996,-20.3418,1.2200,-0.3200,10.5600,-3.1875,-39.6250,-1.9375,2.3750,-37.3750,17.8750,0.8500,-0.7900,0.8200,0.3400,0.1300,9.7900,1,1
5468,1816,65812305,27.000,-6.062,6.232,8.125,0.454,0.433,2.537,99974.03,36.16,-94.350,-95.992,-17.5140,3.1100,0.3300,8.1600,-8.6250,-261.6250,-17.0625,5.6875,-36.2500,15.5000,-0.3400,0.0300,-0.7800,3.8300,0.2800,9.0100,1,1
5480,1820,65931796,60.500,-6.000,39.213,99.812,0.433,0.337,0.399,99975.17,36.18,-94.378,-95.602,-13.9761,6.7500,1.3200,4.7400,-37.6250,-401.8125,-6.4375,12.3750,-35.8750,11.0000,1.3000,0.0600,0.7500,8.1800,0.1600,5.4000,1,1
5492,1824,66052449,89.062,-5.125,83.683,102.000,0.445,1.421,-0.501,99962.32,36.18,-94.361,-94.778,-11.2707,6.5700,0.8800,0.0500,-31.3750,-294.6250,-3.3750,15.6875,-37.0000,-1.2500,-0.8700,-0.1600,-0.7800,9.7700,0.1500,0.8200,1,1
5504,1828,66172773,90.688,-5.125,97.136,102.562,0.263,-1.062,0.623,99991.75,36.19,-94.175,-93.756,-11.9756,9.5900,1.3100,-0.6400,-3.5000,1.1250,0.2500,15.6875,-37.7500,-7.5000,0.2400,-0.1100,-1.4500,9.7900,0.1500,0.5300,1,1
5516,1832,66292188,90.812,-5.188,100.974,102.562,0.150,-0.917,-0.917,99990.02,36.19,-93.978,-92.793,-10.9530,9.5900,0.2800,-0.0300,0.2500,-0.2500,0.1875,15.6875,-38.0625,-8.2500,-0.1900,0.1500,-0.5400,9.7900,0.1600,0.5100,1,1
5528,1836,66412710,91.125,-5.312,102.109,102.250,0.214,0.843,-0.338,99969.17,36.18,-93.716,-91.831,-11.2186,9.3000,0.5500,-0.1700,11.2500,-1.0000,0.3125,15.6875,-38.0625,-7.7500,-0.1000,0.1100,-0.4900,9.7900,0.1800,0.4500,1,1
5540,1840,66531222,91.125,-5.312,102.176,102.250,0.210,-1.034,1.205,99991.41,36.18,-93.286,-90.883,-11.0643,9.4300,0.3900,0.1900,0.0000,0.1250,0.1875,15.2500,-36.2500,-7.7500,-0.3500,0.2000,-0.2500,9.7900,0.1800,0.4400,1,1
5552,1844,66652832,91.375,-5.438,102.369,102.500,0.394,0.105,0.291,99977.91,36.19,-92.824,-89.925,-11.0021,9.6600,0.2800,-0.0600,-0.1250,2.3750,-0.6250,14.5625,-36.5625,-7.5000,-0.1900,0.1100,-0.3600,9.7900,0.2000,0.3900,1,1
5564,1848,66773158,91.500,-5.500,102.536,102.688,0.256,-0.552,-0.975,99985.70,36.17,-92.327,-88.995,-11.0957,9.5200,0.3800,0.0600,-0.5000,1.6875,-0.1875,15.6875,-37.3750,-7.7500,-0.0600,0.2300,-0.4000,9.7900,0.2200,0.3600,1,1
5573,1851,66873138,91.375,-5.625,102.900,103.562,-0.060,-1.177,-1.384,99993.11,36.17,-91.940,-88.262,-11.3080,9.8000,0.5400,-0.1500,-13.4375,9.3750,0.0000,15.6875,-37.0000,-7.0000,-0.2200,-0.4500,0.0000,9.7900,0.2400,0.3700,1,1
5585,1855,66993059,91.625,-5.625,103.542,103.812,0.019,-0.885,1.619,99989.65,36.18,-91.361,-87.344,-11.0622,9.6600,0.3100,-0.0100,-0.2500,-0.3125,0.0625,14.5625,-37.3750,-8.2500,-0.1900,0.0600,-0.2900,9.7900,0.2400,0.3200,1,1
5595,1858,67093051,91.750,-5.688,103.740,103.875,0.082,-0.062,-1.554,99979.89,36.17,-90.879,-86.610,-11.0439,9.5800,0.2900,0.0200,0.0000,-0.1875,-0.0625,15.6875,-37.3750,-8.2500,-0.1800,0.0600,-0.2600,9.7900,0.2500,0.2800,1,1
5606,1862,67203009,91.812,-5.688,103.865,103.938,0.063,0.617,-0.251,99971.84,36.17,-90.329,-85.816,-11.0445,9.5900,0.2900,0.0300,0.0000,0.2500,0.0000,14.5625,-38.0625,-8.2500,-0.1800,0.0400,-0.2200,9.7900,0.2500,0.2600,1,1
5618,1866,67323873,91.875,-5.750,103.917,103.938,0.114,1.279,-0.960,99964.01,36.17,-89.693,-84.958,-11.0904,9.7400,0.3100,0.0100,0.0000,0.4375,0.0625,15.6875,-37.3750,-8.5625,-0.0400,0.0500,-0.2400,9.8000,0.2500,0.2400,1,1
5630,1870,67443306,91.938,-5.750,103.932,103.938,0.127,-0.134,0.894,99980.74,36.17,-88.975,-84.113,-11.0540,9.7700,0.2700,0.0000,0.0625,0.1250,-0.0625,14.8750,-36.5625,-8.5625,-0.0500,0.0100,-0.1900,9.8000,0.2500,0.2200,1,1
5642,1874,67563822,92.000,-5.750,103.942,104.000,0.155,0.874,-0.576,99968.80,36.18,-88.305,-83.291,-11.0931,9.7600,0.3100,-0.0100,0.1250,-0.6875,0.0625,15.2500,-36.5625,-8.2500,-0.0500,0.0300,-0.1900,9.8000,0.2600,0.2100,1,1
5654,1878,67683527,92.062,-5.750,103.984,104.000,0.217,1.395,-0.136,99962.63,36.17,-87.602,-82.487,-11.0705,9.7400,0.2900,0.0100,0.0000,0.1250,0.0625,15.2500,-37.0000,-8.2500,-0.0700,0.0100,-0.2000,9.8000,0.2600,0.1900,1,1
5666,1882,67813911,92.062,-5.750,103.995,104.000,0.095,-0.615,0.922,99986.45,36.15,-86.786,-81.624,-11.0575,9.7100,0.2800,0.0100,0.1875,0.5000,-0.0625,14.8750,-37.3750,-9.0625,-0.0400,0.0300,-0.1700,9.8000,0.2600,0.1800,1,1
5678,1886,67933597,92.062,-5.812,103.999,104.000,0.163,0.166,-0.294,99977.19,36.15,-86.074,-80.859,-11.0786,9.7300,0.2900,0.0500,0.0000,0.0000,0.0000,15.2500,-36.5625,-8.5625,-0.0800,0.0300,-0.1300,9.8000,0.2600,0.1700,1,1
5688,1889,68033551,92.125,-5.812,104.000,104.000,0.016,-0.657,-0.795,99986.95,36.17,-85.486,-80.236,-11.0529,9.7500,0.2600,-0.0100,0.0000,-0.2500,0.1250,15.2500,-37.7500,-7.7500,-0.0700,0.0200,-0.1400,9.8000,0.2600,0.1600,1,1
5699,1893,68144070,92.125,-5.812,104.000,104.000,-0.097,-0.733,-1.133,99987.85,36.16,-84.847,-79.563,-11.1002,9.7300,0.3100,0.0000,0.0000,0.1250,0.0000,14.5625,-36.5625,-8.2500,-0.0800,0.0100,-0.1500,9.8000,0.2700,0.1600,1,1
5711,1897,68264566,92.125,-5.812,104.000,104.000,0.218,0.661,1.496,99971.33,36.17,-84.098,-78.836,-11.0896,9.7200,0.3000,-0.0100,0.0000,-0.2500,0.1250,14.1875,-36.5625,-7.7500,-0.0600,0.0000,-0.1500,9.8000,0.2700,0.1500,1,1
5723,1901,68383289,92.188,-5.812,104.000,104.000,0.104,0.291,-1.015,99975.71,36.17,-83.394,-78.143,-11.0601,9.7300,0.2700,0.0100,0.0000,-0.3125,0.0000,14.5625,-36.2500,-8.2500,-0.0800,0.0300,-0.1400,9.8000,0.2700,0.1400,1,1
5735,1905,68504733,92.188,-5.812,104.033,104.062,0.116,-0.466,1.438,99984.68,36.18,-82.629,-77.443,-11.0635,9.7600,0.2700,0.0000,0.0625,-0.0625,0.0625,15.2500,-37.3750,-8.5625,-0.0400,0.0300,-0.1500,9.8000,0.2700,0.1300,1,1
5747,1909,68624993,92.188,-5.812,104.054,104.062,0.096,-0.382,-0.571,99983.69,36.17,-81.917,-76.774,-11.0831,9.7500,0.2900,-0.0200,0.1875,-0.1250,0.0625,14.8750,-36.5625,-8.2500,-0.0600,0.0100,-0.1300,9.8000,0.2700,0.1300,1,1
5759,1913,68744408,92.188,-5.812,104.060,104.062,0.295,0.119,1.586,99977.75,36.16,-81.173,-76.119,-11.0710,9.7400,0.2800,0.0100,-0.0625,-0.0625,0.1250,15.6875,-36.2500,-7.7500,-0.0400,0.0000,-0.1300,9.8000,0.2700,0.1200,1,1
5769,1916,68844950,92.188,-5.812,104.062,104.062,0.389,-0.117,1.656,99980.55,36.15,-80.526,-75.575,-11.0817,9.7400,0.2900,-0.0100,-0.1250,0.0000,-0.1250,14.8750,-36.5625,-8.2500,-0.0700,0.0000,-0.1200,9.8000,0.2700,0.1200,1,1
5781,1920,68964950,92.188,-5.812,104.062,104.062,0.432,1.216,-1.001,99964.75,36.16,-79.845,-74.958,-11.0728,9.7500,0.2800,-0.0100,0.0625,0.1875,-0.0625,15.2500,-37.0000,-8.5625,-0.0600,0.0200,-0.1100,9.8000,0.2700,0.1200,1,1
5793,1924,69084524,92.188,-5.812,104.062,104.062,0.325,-0.510,0.686,99985.20,36.17,-79.113,-74.348,-11.0919,9.7500,0.3000,0.0100,0.1250,0.3125,-0.0625,14.8750,-36.5625,-7.7500,-0.0500,0.0200,-0.0900,9.8000,0.2700,0.1200,1,1
5805,1928,69205511,92.188,-5.812,104.054,104.062,0.110,0.355,-2.107,99974.95,36.17,-78.509,-73.768,-10.8889,9.4900,0.1200,-0.0500,-2.1250,-0.8125,0.0625,15.2500,-37.0000,-8.2500,0.0500,0.1700,-0.2800,9.8000,0.2700,0.1200,1,1
5817,1932,69325779,92.188,-5.812,104.289,104.625,0.400,1.560,0.864,99960.67,36.17,-77.817,-73.192,-11.0672,9.5800,0.3100,0.4700,-5.8125,-0.8125,-0.1250,14.8750,-37.7500,-7.7500,-0.0900,-0.0800,0.0000,9.8000,0.2700,0.1200,1,1
5829,1936,69445184,92.250,-5.812,104.649,104.812,0.110,-0.934,-0.951,99990.23,36.16,-77.155,-72.634,-10.7366,9.8200,-0.0700,-0.1300,-3.6250,-0.8125,-0.1875,14.8750,-35.8750,-8.2500,-0.0200,0.1900,-0.5000,9.8000,0.2700,0.1000,1,1
5841,1940,69565714,92.312,-5.812,104.652,104.562,0.056,0.394,-0.641,99974.49,36.17,-76.579,-72.103,-10.5927,8.9200,-0.1200,-0.0500,1.9375,-0.9375,-0.6250,15.6875,-36.5625,-8.2500,0.9100,0.4700,-0.2800,9.8000,0.2700,0.0900,1,1
5853,1944,69684779,92.312,-5.812,104.588,104.562,0.390,0.629,3.471,99971.71,36.17,-75.881,-71.568,-10.6977,9.2800,-0.0200,0.7200,-3.2500,1.6875,0.7500,14.1875,-36.5625,-9.5000,0.1500,0.3500,-0.4500,9.8000,0.2700,0.0900,1,1
5866,1948,69815881,92.312,-5.812,104.656,104.750,0.212,0.310,-1.929,99975.49,36.15,-75.237,-71.014,-11.6170,9.8600,0.8300,0.3300,-3.2500,-0.7500,0.1875,14.8750,-37.7500,-9.5000,1.4400,0.2900,-0.6400,9.8000,0.2700,0.1000,1,1
5878,1952,69934945,92.250,-5.812,105.008,105.375,0.017,0.311,-1.887,99975.47,36.16,-74.700,-70.533,-11.0208,9.9700,0.2100,0.1100,-7.3750,-1.8750,0.1250,13.8750,-37.0000,-9.0625,-0.0600,-0.2300,-0.2000,9.8000,0.2600,0.1100,1,1
5890,1956,70055914,92.250,-5.750,105.419,105.688,0.047,-0.685,1.328,99987.28,36.15,-74.082,-70.040,-11.8124,10.2000,0.9900,0.0100,-1.4375,1.5625,0.1250,13.5000,-37.3750,-10.2500,-0.7300,0.2700,0.6800,9.8000,0.2600,0.1200,1,1
5902,1960,70176153,92.250,-5.750,105.656,105.688,-0.058,-0.342,-1.443,99983.22,36.16,-73.564,-69.589,-11.4021,9.6200,0.6400,0.1200,1.5000,1.8125,0.0000,14.5625,-36.5625,-10.2500,-0.2400,0.2700,-0.0600,9.8000,0.2600,0.1200,1,1
5914,1964,70296070,92.250,-5.750,105.611,105.688,0.293,0.860,2.285,99968.97,36.16,-72.968,-69.121,-11.3744,10.2500,0.5400,-0.1000,-4.8750,1.0625,-0.2500,14.5625,-37.7500,-9.5000,-0.5000,0.0800,-0.0400,9.8000,0.2600,0.1200,1,1
5926,1968,70416467,92.250,-5.750,105.550,105.500,0.299,0.198,0.318,99976.81,36.15,-72.387,-68.673,-11.1713,9.9200,0.3600,-0.3300,-2.1875,0.1250,-0.3125,14.5625,-38.0625,-9.0625,-0.2000,0.1100,-0.4500,9.8000,0.2600,0.1300,1,1
5938,1972,70535894,92.250,-5.812,105.574,105.625,0.339,-0.299,0.505,99982.70,36.16,-71.821,-68.243,-11.1073,9.2400,0.3800,0.3300,-1.8750,-0.1875,-0.1875,13.8750,-38.0625,-9.5000,0.4700,-0.1500,-0.4700,9.8000,0.2600,0.1200,1,1
5950,1976,70656585,92.250,-5.812,105.651,105.688,0.284,-0.405,0.417,99983.96,36.16,-71.288,-67.822,-11.1858,9.8800,0.3800,-0.0200,0.5000,0.8750,0.1875,13.8750,-38.0625,-9.8750,0.0100,0.1200,0.0000,9.8000,0.2600,0.1300,1,1
5962,1980,70776866,92.188,-5.812,105.689,105.750,0.200,-0.410,-0.633,99984.02,36.16,-70.792,-67.429,-11.1155,9.7600,0.3200,-0.0600,-3.5000,0.6875,-0.0625,13.0625,-37.0000,-10.6875,-0.0800,0.1700,-0.3700,9.8000,0.2600,0.1300,1,1
5972,1983,70877389,92.250,-5.812,105.799,105.812,0.231,1.036,-0.725,99966.88,36.14,-70.423,-67.121,-10.9719,9.4200,0.2200,0.1900,1.4375,-0.6875,0.4375,13.0625,-37.3750,-10.2500,0.0600,-0.0600,-0.0500,9.8000,0.2700,0.1100,1,1
5982,1986,70977009,92.188,-5.812,105.837,105.875,0.031,-0.609,-0.223,99986.38,36.14,-70.022,-66.810,-11.4076,9.8100,0.6500,1.0200,0.2500,1.0000,0.1875,13.0625,-38.8750,-9.8750,-0.4200,-0.6700,0.4700,9.8000,0.2700,0.1200,1,1
5994,1990,71096429,92.188,-5.812,105.662,105.562,0.528,0.834,2.927,99969.27,36.15,-69.481,-66.422,-11.0836,9.7700,0.2900,0.0200,0.0000,-0.3750,-0.0625,13.8750,-38.8750,-11.0625,-0.0500,0.0000,-0.0800,9.8000,0.2700,0.1100,1,1
6006,1994,71216940,92.250,-5.812,105.553,105.438,0.297,-0.562,-1.279,99985.82,36.15,-69.007,-66.061,-11.1236,9.7800,0.3300,0.0400,2.2500,-0.6875,0.0625,12.3750,-37.3750,-10.6875,-0.0500,0.0400,-0.0300,9.8000,0.2700,0.1100,1,1
6018,1998,71336760,92.250,-5.812,105.411,105.062,0.245,-0.357,-0.541,99983.38,36.16,-68.574,-65.714,-11.4323,9.8500,0.6900,1.4800,15.3750,0.6875,-0.1875,12.6875,-38.5000,-10.2500,-0.2700,0.2500,0.6500,9.8000,0.2700,0.1000,1,1
6030,2002,71456997,92.062,-5.812,103.250,100.312,0.044,-0.867,-0.936,99989.44,36.17,-68.171,-65.355,-10.6494,8.9100,-0.0200,1.1100,50.6875,3.6250,1.5000,13.5000,-37.7500,-8.2500,0.0100,-0.4200,1.3500,9.8000,0.2700,0.1600,1,1
6040,2005,71557467,92.312,-5.875,100.239,97.812,-0.031,-0.832,-1.768,99989.02,36.16,-67.855,-65.080,-11.3668,9.7700,0.5300,-0.8300,13.0625,-1.6875,-0.1875,14.5625,-37.3750,-3.7500,-0.5800,0.1000,-1.1000,9.8000,0.2800,0.0500,1,1
6051,2009,71667595,92.312,-5.875,98.368,97.562,0.066,0.369,0.313,99974.78,36.17,-67.497,-64.833,-10.8087,9.0700,0.0200,-1.3400,-10.8750,-2.4375,0.0000,14.8750,-37.3750,-4.0625,0.5900,0.0700,-1.8600,9.8000,0.2800,0.0400,1,1
6063,2013,71786411,92.312,-5.875,98.297,98.562,-0.159,-0.739,-0.808,99987.91,36.17,-67.137,-64.538,-11.1169,9.7200,0.3100,-0.1800,-3.4375,0.8750,-0.1250,15.2500,-37.0000,-4.0625,-0.1000,0.1000,-0.1800,9.8000,0.2800,0.0300,1,1
6072,2016,71886215,92.312,-5.875,98.750,99.312,-0.149,-1.088,0.119,99992.06,36.15,-66.825,-64.296,-11.0985,9.7000,0.3000,-0.0200,-14.3125,-0.0625,-0.1250,15.6875,-37.7500,-3.0000,-0.5000,-0.1000,0.0400,9.8000,0.2800,0.0400,1,1
6084,2020,72007684,92.312,-5.875,99.984,100.875,-0.135,-0.154,-0.467,99980.98,36.16,-66.493,-64.009,-11.0178,9.7400,0.2300,0.3600,-3.1875,0.0625,0.0000,15.2500,-37.3750,-5.3750,-0.0900,0.0200,-0.0200,9.8000,0.2800,0.0500,1,1
6096,2024,72128009,92.312,-5.875,100.829,101.312,0.384,0.720,4.135,99970.62,36.16,-66.031,-63.713,-11.1472,9.6600,0.3600,0.1500,-3.5000,-0.3750,-0.1250,15.2500,-37.3750,-6.1875,-0.0100,0.0200,0.0100,9.8000,0.2700,0.0500,1,1
6108,2028,72247427,92.312,-5.875,101.268,101.500,0.281,0.263,-0.405,99976.05,36.16,-65.667,-63.442,-11.1525,9.7500,0.3500,0.0000,-1.5000,-0.0625,0.0625,15.6875,-37.3750,-7.0000,-0.0600,0.0100,-0.0100,9.8000,0.2700,0.0400,1,1
6120,2032,72367921,92.312,-5.812,101.750,102.250,0.360,0.644,0.114,99971.53,36.16,-65.295,-63.177,-11.0797,9.8100,0.2800,-0.0300,-6.8750,-1.2500,0.6250,15.2500,-36.2500,-7.5000,-0.1000,-0.0500,-0.1500,9.8000,0.2700,0.0300,1,1
6132,2036,72487214,92.375,-5.812,102.336,102.625,0.328,0.459,0.419,99973.72,36.17,-64.944,-62.919,-11.0657,9.7500,0.2700,-0.0800,-0.1250,1.2500,-0.5625,15.2500,-37.0000,-7.5000,-0.0300,0.0100,-0.1000,9.8000,0.2700,0.0300,1,1
6144,2040,72608447,92.312,-5.875,102.564,102.625,0.274,-0.494,0.391,99985.02,36.17,-64.580,-62.666,-11.1036,9.7500,0.3000,-0.0200,-1.1250,1.6875,-0.2500,15.2500,-37.0000,-6.5625,0.0000,0.1200,-0.3600,9.8000,0.2800,0.0400,1,1
6154,2043,72708447,92.312,-5.812,102.851,103.188,0.436,0.505,0.158,99973.17,36.18,-64.294,-62.467,-11.1140,9.7600,0.3200,-0.0200,-4.1875,-0.9375,0.5000,16.0625,-37.0000,-7.7500,0.0000,0.1100,-0.0200,9.8000,0.2700,0.0300,1,1
6165,2047,72828355,92.312,-5.875,103.440,104.000,0.070,0.127,-3.207,99977.65,36.14,-64.067,-62.255,-11.1445,9.7100,0.3400,-0.1500,-2.8750,0.7500,-0.5625,16.3750,-37.0000,-8.5625,0.0900,0.0500,-0.6900,9.8000,0.2700,0.0400,1,1
6175,2050,72928772,92.312,-5.875,103.928,104.250,0.158,0.254,0.445,99976.16,36.15,-63.806,-62.063,-11.0728,9.7400,0.2700,-0.0200,0.2500,1.5625,-0.7500,15.2500,-36.5625,-7.7500,-0.1000,0.0300,-0.0200,9.8000,0.2800,0.0400,1,1
6186,2054,73037550,92.312,-5.875,104.149,104.250,0.126,0.445,-0.439,99973.89,36.14,-63.565,-61.872,-11.1059,9.7600,0.3000,-0.0500,-0.1250,-0.7500,0.3750,15.6875,-36.5625,-8.5625,-0.0500,0.0000,-0.1000,9.8000,0.2800,0.0400,1,1
6198,2058,73158702,92.312,-5.875,104.221,104.250,0.132,0.767,-1.093,99970.07,36.16,-63.305,-61.665,-11.0821,9.7300,0.2800,-0.0300,-0.0625,-0.2500,0.0000,16.3750,-36.5625,-9.0625,-0.0400,0.0300,-0.1000,9.8000,0.2800,0.0400,1,1
6210,2062,73279008,92.312,-5.875,104.259,104.312,0.189,0.518,0.542,99973.02,36.15,-63.017,-61.459,-11.0710,9.7800,0.2600,-0.1200,-0.3750,-0.3125,0.0000,16.0625,-36.5625,-9.5000,-0.0400,-0.0100,-0.0900,9.8000,0.2800,0.0300,1,1
6222,2066,73398940,92.250,-5.938,104.297,104.312,0.442,1.426,1.411,99962.27,36.15,-62.717,-61.256,-11.0914,9.7300,0.2800,0.0000,0.0625,0.5000,0.1250,16.3750,-37.3750,-8.5625,-0.0500,0.0100,-0.1000,9.8000,0.2800,0.0600,1,1
6234,2070,73518940,92.250,-5.938,104.308,104.312,0.175,-0.474,-1.390,99984.78,36.15,-62.451,-61.065,-11.1249,9.7500,0.3100,-0.0400,0.6250,0.3125,-0.0625,16.0625,-37.3750,-9.8750,-0.0500,0.0100,-0.0900,9.8000,0.2800,0.0500,1,1
6246,2074,73638458,92.250,-5.938,104.294,104.250,0.267,-1.017,2.010,99991.21,36.16,-62.155,-60.873,-11.2039,9.7600,0.3900,0.0000,2.5625,0.0625,0.0625,15.6875,-37.0000,-8.5625,-0.0900,0.0100,-0.0400,9.8000,0.2900,0.0500,1,1
6256,2077,73738318,92.250,-5.938,104.225,104.188,0.001,0.396,-4.015,99974.47,36.14,-62.066,-60.749,-11.1312,9.7300,0.3200,0.0000,0.6250,-0.1250,-0.0625,15.6875,-37.0000,-8.2500,-0.0800,0.0100,-0.0900,9.8000,0.2900,0.0500,1,1
6265,2080,73838420,92.250,-5.938,104.202,104.188,-0.120,-0.812,-0.448,99988.78,36.14,-61.891,-60.610,-11.1129,9.7300,0.3000,-0.0400,-0.0625,-0.3125,0.2500,15.6875,-37.3750,-7.7500,-0.0600,0.0000,-0.0900,9.8000,0.2900,0.0500,1,1
6276,2084,73949198,92.250,-5.938,104.192,104.188,-0.022,0.071,-0.259,99978.32,36.16,-61.706,-60.460,-11.1028,9.7400,0.2900,-0.0100,0.1250,0.2500,0.0625,14.8750,-36.5625,-8.2500,-0.0400,0.0200,-0.0600,9.8000,0.2900,0.0500,1,1
6288,2088,74069703,92.250,-5.938,104.189,104.188,-0.125,-0.711,0.715,99987.59,36.16,-61.497,-60.300,-11.0845,9.7400,0.2700,-0.0500,1.1875,0.0625,0.0625,16.7500,-36.5625,-9.0625,-0.0800,-0.0400,-0.1100,9.8000,0.2900,0.0500,1,1
6300,2092,74188798,92.250,-5.938,104.147,104.125,0.105,-0.876,2.624,99989.55,36.15,-61.231,-60.132,-11.1662,9.7800,0.3500,0.0000,2.0625,0.3750,0.2500,15.0000,-37.0000,-9.0625,-0.0700,0.0400,-0.0500,9.8000,0.2900,0.0500,1,1
6312,2096,74309826,92.250,-5.938,104.074,104.000,0.269,0.382,1.464,99974.62,36.16,-61.012,-59.981,-11.1667,9.7000,0.3600,0.0300,-0.8750,0.6250,0.3750,16.0625,-36.5625,-8.5625,-0.1300,0.1000,-0.1700,9.8000,0.2900,0.0500,1,1
6324,2100,74430006,92.312,-5.875,104.104,104.125,0.404,0.118,1.014,99977.77,36.16,-60.751,-59.819,-11.3487,9.7200,0.5400,-0.2600,0.0625,-0.3750,0.0625,15.2500,-36.5625,-8.2500,-0.0500,0.4000,-0.3300,9.8000,0.2700,0.0200,1,1
6336,2104,74549951,92.250,-5.938,103.599,102.812,0.580,1.310,0.535,99963.64,36.16,-60.533,-59.746,-11.6078,10.3900,0.7100,-0.5300,14.0000,1.3125,-0.1250,16.3750,-37.3750,-8.2500,-0.2700,0.6700,-0.2100,9.8000,0.2800,0.0500,1,1
6348,2108,74669950,92.250,-5.938,102.194,100.562,0.399,0.437,-0.553,99973.98,36.16,-60.348,-59.782,-12.6158,10.2900,1.7500,-0.1400,32.3125,0.8125,-0.3750,17.1875,-38.0625,-7.0000,-0.4600,1.7200,-0.2700,9.8000,0.2900,0.0500,1,1
6360,2112,74789424,92.312,-5.875,98.762,95.562,0.661,0.650,1.710,99971.46,36.15,-60.118,-59.686,-11.0990,10.1300,0.2300,-0.6700,60.8750,5.8125,1.3125,17.1875,-37.3750,-5.0000,0.8100,-0.4100,-0.5100,9.8000,0.2700,0.0600,1,1
6369,2115,74889302,90.500,-5.688,93.938,89.562,0.178,-0.802,-1.530,99988.66,36.15,-60.031,-59.398,-9.0792,9.7000,-1.6800,1.9700,24.1875,25.8750,2.3750,16.7500,-38.0625,-0.0625,-0.8400,-0.9300,0.8300,9.7800,0.2500,0.5800,1,1
6381,2119,75010568,91.125,-5.688,90.606,89.250,0.108,0.230,-1.669,99976.43,36.15,-59.914,-59.134,-10.1023,9.1700,-0.6000,0.8300,7.8125,-40.6875,0.3125,16.3750,-37.0000,3.1875,-0.1400,0.2100,0.0000,9.7900,0.2400,0.4100,1,1
6393,2123,75130871,92.500,-5.688,89.643,89.562,0.021,-0.726,-0.082,99987.77,36.16,-59.739,-59.021,-10.9796,10.3000,0.1300,-0.5300,-4.5625,-3.9375,-0.4375,16.7500,-38.0625,2.3750,-0.3400,-0.1800,0.0500,9.8000,0.2400,0.0100,1,1
6405,2127,75250280,92.500,-5.688,89.998,90.250,0.037,-0.096,-0.616,99980.30,36.14,-59.606,-58.857,-9.9213,9.5700,-0.8300,0.2000,0.3750,-0.6875,0.0000,17.1875,-36.5625,0.6875,0.4400,-1.0200,0.0800,9.8000,0.2500,0.0000,1,1
6417,2131,75370812,92.438,-5.750,91.400,93.750,0.137,0.114,1.242,99977.81,36.15,-59.424,-58.622,-11.6016,10.1600,0.7800,-0.0400,-49.3125,1.0000,-1.8750,16.7500,-37.7500,-0.0625,0.0100,0.5700,-0.2000,9.8000,0.2600,0.0200,1,1
6429,2135,75490292,92.375,-5.812,94.865,97.125,0.425,1.413,0.988,99962.41,36.15,-59.229,-58.590,-12.0993,9.6300,1.3100,-0.3700,-20.5000,-2.5625,0.0625,17.1875,-37.7500,-2.5000,-0.1900,0.5300,0.0300,9.8000,0.2700,0.0300,1,1
6441,2139,75610941,92.375,-5.750,96.974,97.750,0.166,-0.638,-0.928,99986.73,36.17,-59.064,-58.550,-10.9041,9.7800,0.1200,0.0400,1.5625,0.8125,0.1875,17.1875,-38.0625,-4.0625,0.0200,0.0400,-0.4100,9.8000,0.2600,0.0200,1,1
6453,2143,75731635,92.312,-5.812,98.051,98.688,0.183,-1.141,1.177,99992.69,36.15,-58.896,-58.440,-10.9937,9.3700,0.2500,0.2600,-0.2500,1.7500,-0.0625,16.7500,-38.0625,-5.0000,-0.0600,0.0100,-0.0300,9.8000,0.2700,0.0600,1,1
6462,2146,75831753,92.312,-5.812,98.548,98.875,-0.069,-1.154,-1.956,99992.84,36.13,-58.852,-58.368,-11.0272,9.6300,0.2500,0.0800,0.1875,0.0625,-0.0625,16.0625,-37.3750,-5.0000,-0.0300,0.0200,-0.0700,9.8000,0.2700,0.0600,1,1
6472,2149,75931774,92.312,-5.812,98.739,98.812,-0.108,-0.621,-1.360,99986.52,36.13,-58.789,-58.294,-11.0326,9.7500,0.2400,0.0000,-0.0625,0.1250,0.0625,16.7500,-37.0000,-4.0625,-0.0500,0.0000,-0.0500,9.8000,0.2700,0.0600,1,1
6483,2153,76040182,92.312,-5.812,98.830,98.875,-0.030,0.114,0.457,99977.80,36.12,-58.689,-58.209,-11.0785,9.7200,0.2900,0.0200,0.0000,-0.0625,-0.0625,16.3750,-38.0625,-5.3750,-0.0700,0.0400,-0.0700,9.8000,0.2700,0.0600,1,1
6495,2157,76161690,92.312,-5.812,98.948,99.000,0.116,0.416,1.622,99974.23,36.14,-58.541,-58.109,-11.0807,9.7300,0.2900,-0.0100,0.0625,0.0625,0.0625,16.7500,-37.7500,-4.0625,-0.0300,0.0200,-0.0800,9.8000,0.2700,0.0500,1,1
6507,2161,76281879,92.312,-5.812,98.985,99.000,0.204,0.994,-0.308,99967.38,36.14,-58.419,-58.017,-11.0803,9.7300,0.2900,0.0000,-0.0625,0.0000,-0.1250,17.5625,-37.7500,-5.0000,-0.0500,0.0200,-0.0300,9.8000,0.2700,0.0500,1,1
6519,2165,76401829,89.750,-5.625,98.705,98.000,0.144,0.273,-0.646,99975.93,36.14,-58.293,-57.900,-10.4921,10.0500,-0.3100,2.0500,14.0625,73.6875,8.9375,17.5625,-37.0000,-2.5000,1.5300,1.2700,-0.2200,9.7800,0.2400,0.6800,1,1
6531,2169,76521940,67.938,-7.750,98.571,99.062,0.437,0.677,1.886,99971.14,36.13,-58.120,-57.940,-12.1321,9.3000,-0.1100,3.1500,-13.3750,190.8125,-5.0000,17.8750,-38.0625,-0.0625,0.7000,-0.4800,-0.8200,8.8100,0.2600,4.2900,1,1
6543,2173,76641908,25.750,-5.625,58.169,12.312,0.441,-0.079,1.518,99980.10,36.14,-57.982,-58.200,-15.0583,3.9400,-0.1700,5.5100,-20.5625,416.5625,-29.7500,16.0625,-37.0000,6.8750,-0.5300,-0.0800,-4.1500,3.6300,0.2200,9.1000,1,1
6555,2177,76762450,4.438,-5.875,25.114,11.938,0.546,1.894,-0.604,99956.72,36.14,-57.979,-58.971,-19.5781,-0.2900,0.2900,9.8600,-0.6250,2.6875,4.4375,7.1875,-36.5625,17.0625,0.2400,0.1800,0.0000,0.0800,0.2800,9.8000,1,1
6566,2180,76872566,4.188,-5.812,16.111,12.000,0.276,0.235,-0.641,99976.37,36.11,-58.072,-59.835,-19.5516,0.1300,0.2500,9.7900,0.0000,0.1875,0.0625,7.8750,-36.2500,17.8750,-0.0500,-0.0600,0.0000,0.0400,0.2700,9.8000,1,1
6578,2184,76991906,4.188,-5.812,13.161,12.000,0.121,-0.040,-0.912,99979.63,36.12,-58.273,-60.767,-19.5759,0.0900,0.2300,9.8200,-0.1250,0.1250,-0.0625,7.8750,-36.2500,17.8750,0.0000,-0.0500,0.0000,0.0400,0.2700,9.8000,1,1
6590,2188,77112714,3.875,-5.750,11.705,10.562,0.183,0.921,-0.345,99968.24,36.14,-58.562,-61.707,-19.4423,-0.6400,-0.1300,9.7800,-0.3125,13.4375,6.2500,6.7500,-37.0000,17.8750,0.1900,-0.1100,0.5700,-0.0200,0.2600,9.8000,1,1
6602,2192,77232866,-9.625,-5.750,10.583,9.688,0.294,0.988,1.091,99967.45,36.13,-58.886,-62.669,-19.3612,-1.8800,0.4600,10.0100,-4.0000,189.7500,12.1875,6.0625,-37.3750,18.2500,0.6300,-0.4200,0.4400,-2.3100,0.2500,9.5200,1,1
6614,2196,77352422,-44.438,-6.562,-0.008,277.562,0.322,1.223,-0.545,99964.66,36.14,-59.272,-63.180,-13.0869,-7.0100,0.2000,5.9500,-7.3750,301.0000,8.5000,-4.0000,-37.7500,17.5000,0.1400,0.1000,-0.8700,-7.3400,0.2600,6.4900,1,1
6626,2200,77472832,-55.688,-7.312,-59.174,277.625,0.312,0.723,-0.927,99970.59,36.14,-59.619,-63.148,-11.0789,-7.8200,0.7400,5.1400,-7.8125,37.5000,-8.3125,-10.5625,-37.3750,14.6875,-1.3900,-0.3400,1.4200,-8.4600,0.2600,4.9400,1,1
6638,2204,77592424,-61.875,-8.062,-75.789,277.625,0.273,0.479,-0.254,99973.48,36.15,-59.929,-63.031,-10.4874,-8.4600,0.1600,4.3000,-0.4375,95.6875,0.4375,-11.7500,-37.3750,13.8750,0.3800,-0.1300,0.2700,-9.0100,0.2600,3.8400,1,1
6650,2208,77713471,-72.188,-10.812,-81.144,276.062,0.175,-0.453,0.618,99984.53,36.14,-60.166,-62.682,-8.8259,-9.0200,0.1100,2.7100,-14.1875,83.0625,3.4375,-13.5625,-36.5625,11.0000,0.5100,0.0600,0.1800,-9.5200,0.2600,2.3200,1,1
6659,2211,77803069,-78.438,-16.188,-83.179,275.188,0.023,0.562,-2.667,99972.50,36.14,-60.403,-62.278,-7.1465,-4.5200,1.9300,2.1600,-6.7500,71.6875,1.0625,-14.6875,-38.8750,8.5000,3.7400,0.6300,-1.0700,-9.7200,0.2600,1.2500,1,1
6671,2215,77933748,-84.000,-5.875,-85.664,272.688,-0.102,-0.345,-0.133,99983.25,36.12,-60.544,-61.897,-8.6819,-9.5900,0.1300,-0.1400,-11.5625,-1.1875,-0.1875,-15.5000,-37.7500,4.8750,0.4400,-0.1700,0.1400,-9.8000,0.2800,0.1700,1,1
6683,2219,78053188,-83.938,-5.875,-86.701,273.375,0.007,-0.471,0.533,99984.75,36.12,-60.592,-61.479,-8.6966,-9.4500,0.1900,0.4300,12.7500,-1.2500,-0.3125,-15.7500,-38.5000,4.3750,0.1500,-0.0200,0.0900,-9.8000,0.2700,0.1900,1,1
6695,2223,78173704,-83.812,-5.750,-86.390,273.875,0.269,-0.034,2.775,99979.55,36.14,-60.543,-61.030,-8.3259,-10.2800,0.4200,-0.3300,0.9375,-19.7500,-6.2500,-15.5000,-39.2500,5.1875,1.1700,-0.7200,-0.6800,-9.7900,0.2600,0.2500,1,1
6707,2227,78292391,-83.812,-5.750,-85.741,274.688,0.247,-0.667,1.012,99987.06,36.13,-60.462,-60.594,-8.5847,-9.3200,0.3000,0.0800,-1.1875,-0.6250,-0.2500,-15.5000,-39.2500,5.6875,-0.1200,0.0000,-0.3400,-9.7900,0.2600,0.2600,1,1
6719,2231,78413822,-79.188,-5.750,-85.308,275.000,0.257,0.384,-0.086,99974.61,36.12,-60.390,-60.188,-8.9252,-9.4300,0.1300,1.0200,0.1250,-100.8750,-0.3750,-16.1875,-38.5000,4.0000,0.1700,-0.0700,-0.0900,-9.7300,0.2600,1.1200,1,1
6731,2235,78534128,-65.000,-8.562,-84.961,275.250,0.067,0.486,-1.971,99973.40,36.14,-60.315,-59.753,-9.9062,-10.4800,-0.2900,3.3500,-9.0625,-154.1250,3.1250,-14.6875,-37.7500,7.6875,-1.3000,0.3700,2.0700,-9.1500,0.2600,3.5000,1,1
6743,2239,78654371,-25.625,-5.875,-42.955,5.000,-0.066,0.404,-1.253,99974.38,36.13,-60.223,-59.837,-15.5720,-5.3200,0.9900,7.5100,3.5625,-225.6875,-7.6250,-8.3750,-37.3750,14.6875,0.8300,0.5300,0.0000,-4.8500,0.2500,8.5100,1,1
6755,2243,78774456,-3.500,-5.688,-8.052,5.812,0.101,0.242,1.360,99976.29,36.14,-60.125,-60.584,-27.0403,4.4900,0.6000,16.9400,0.6250,-37.2500,-0.7500,-2.0625,-37.0000,18.2500,3.1300,-0.0600,1.9800,-1.2800,0.2400,9.7100,1,1
6764,2246,78874495,3.375,-5.688,0.473,5.750,0.143,-0.229,1.674,99981.88,36.11,-60.118,-61.211,-16.2757,-3.1900,0.1800,6.8200,-0.3750,-202.2500,-9.9375,1.5625,-35.8750,17.0625,3.1900,-2.4400,7.2900,-0.1100,0.2500,9.8000,1,1
6776,2250,78993193,4.250,-5.688,4.343,6.062,0.199,-0.041,1.044,99979.65,36.11,-60.211,-62.128,-19.5704,0.1500,0.1900,9.8100,0.2500,0.1875,-11.5625,4.1875,-37.0000,16.6875,0.1000,-0.0600,0.0000,0.0400,0.2500,9.8000,1,1
6788,2254,79114695,4.250,-5.688,5.589,6.125,0.356,1.686,-1.179,99959.18,36.13,-60.429,-63.025,-19.5838,0.0700,0.2100,9.8300,0.0000,0.0625,0.0625,4.8750,-37.0000,18.2500,0.0200,-0.0300,0.0000,0.0400,0.2500,9.8000,1,1
6800,2258,79234872,4.250,-5.688,5.974,6.125,0.250,-0.122,0.758,99980.61,36.13,-60.661,-63.893,-19.5617,0.0700,0.1800,9.8100,0.0625,0.1875,0.1250,3.5000,-36.2500,17.0625,0.0300,-0.0100,0.0200,0.0400,0.2500,9.8000,1,1
6812,2262,79354805,4.250,-5.688,6.039,6.062,0.083,0.383,-1.594,99974.62,36.12,-61.054,-64.771,-19.5771,0.0800,0.2400,9.8200,0.0000,0.1875,0.0000,3.5000,-36.2500,17.5000,0.0200,-0.0200,0.0100,0.0400,0.2500,9.8000,1,1
6824,2266,79474831,4.250,-5.688,6.056,6.062,0.287,0.985,1.978,99967.48,36.14,-61.424,-65.625,-19.5451,0.0800,0.2100,9.7900,-0.0625,0.0000,0.1250,4.5625,-36.5625,17.5000,0.0200,-0.0200,0.0200,0.0400,0.2500,9.8000,1,1
6836,2270,79594173,4.250,-5.688,6.061,6.062,0.383,0.680,0.649,99971.11,36.13,-61.828,-66.461,-19.5756,0.0800,0.2200,9.8200,0.0000,0.0000,0.0000,3.5000,-37.0000,16.6875,0.0300,-0.0300,0.0200,0.0500,0.2500,9.8000,1,1
6848,2274,79714944,4.250,-5.688,6.029,6.000,0.241,-0.433,-0.252,99984.29,36.13,-62.308,-67.300,-19.5468,0.0900,0.2200,9.7900,0.0625,0.0000,0.0625,3.5000,-37.3750,18.6875,0.0300,0.0000,-0.0100,0.0500,0.2500,9.8000,1,1
6857,2277,79805072,4.250,-5.688,6.005,5.938,0.378,1.707,-0.980,99958.92,36.13,-62.781,-67.991,-19.5850,0.0900,0.2000,9.8300,0.0625,0.0625,-0.0625,3.7500,-37.7500,18.2500,0.0000,-0.0400,0.0100,0.0500,0.2500,9.8000,1,1
6867,2280,79915558,4.250,-5.688,5.928,5.875,0.332,-0.339,1.383,99983.18,36.12,-63.191,-68.667,-19.5649,0.0800,0.2100,9.8100,-0.0625,-0.0625,0.0000,4.1875,-37.3750,17.8750,0.0300,-0.0300,0.0100,0.0500,0.2500,9.8000,1,1
6878,2284,80025565,4.250,-5.688,5.892,5.875,0.055,-1.218,-1.907,99993.59,36.12,-63.750,-69.410,-19.5553,0.0900,0.2000,9.8000,0.0000,-0.1250,0.0000,3.7500,-37.3750,17.5000,0.0200,-0.0400,0.0100,0.0500,0.2500,9.8000,1,1
6890,2288,80144533,4.250,-5.688,5.880,5.875,-0.136,0.637,-3.349,99971.61,36.13,-64.477,-70.217,-19.5642,0.0800,0.2000,9.8100,0.0000,-0.0625,0.0625,4.1875,-37.0000,17.8750,0.0300,-0.0200,0.0200,0.0500,0.2500,9.8000,1,1
6902,2292,80265703,4.250,-5.688,5.876,5.875,-0.332,-1.001,-1.093,99991.02,36.15,-65.139,-71.006,-19.5927,0.0600,0.2100,9.8400,0.0000,0.0000,0.0625,4.1875,-37.3750,17.0625,0.0100,-0.0400,0.0100,0.0500,0.2500,9.8000,1,1
6914,2296,80386010,4.250,-5.688,5.875,5.875,0.120,0.894,2.287,99968.56,36.14,-65.764,-71.762,-19.5597,0.0500,0.1800,9.8100,0.0000,0.0625,-0.0625,3.7500,-37.3750,16.6875,0.0300,0.0000,0.0200,0.0500,0.2500,9.8000,1,1
6926,2300,80505832,4.250,-5.688,5.875,5.875,0.342,0.514,2.773,99973.07,36.13,-66.340,-72.490,-19.5736,0.0600,0.2200,9.8200,0.1875,-0.2500,0.0000,4.1875,-37.0000,17.5000,0.0200,-0.0200,0.0200,0.0500,0.2500,9.8000,1,1
6938,2304,80625925,4.250,-5.688,5.875,5.875,0.663,1.218,2.973,99964.72,36.15,-66.911,-73.201,-19.5424,0.0600,0.2000,9.7900,-0.0625,-0.0625,0.0625,4.1875,-37.3750,17.8750,0.0100,-0.0100,0.0000,0.0400,0.2400,9.8000,1,1
6950,2308,80745935,4.250,-5.688,5.875,5.875,0.432,0.377,-1.127,99974.70,36.14,-67.562,-73.910,-19.5451,0.0800,0.2100,9.7900,0.0000,-0.3125,0.0625,2.6875,-37.0000,18.2500,0.0300,0.0000,0.0000,0.0400,0.2400,9.8000,1,1
6959,2311,80845907,4.250,-5.688,5.875,5.875,0.672,0.801,0.537,99969.66,36.11,-68.045,-74.476,-19.5657,0.0800,0.2200,9.8100,0.0625,0.0625,0.1250,4.1875,-37.3750,18.6875,0.0300,-0.0400,0.0200,0.0400,0.2400,9.8000,1,1
6971,2315,80966585,4.250,-5.688,5.912,6.000,0.084,-0.683,-3.828,99987.25,36.12,-68.788,-75.175,-19.5743,0.0600,0.2300,9.8200,-0.1250,0.2500,-2.1875,3.5000,-36.5625,17.0625,0.0000,-0.0100,-0.0100,0.0400,0.2400,9.8000,1,1
6983,2319,81086772,4.250,-5.688,6.213,6.375,-0.289,-0.752,-3.667,99988.07,36.13,-69.575,-75.866,-19.5845,0.0700,0.2200,9.8300,0.0625,0.0000,0.0000,4.5625,-38.0625,17.0625,0.0400,-0.0300,0.0200,0.0400,0.2500,9.8000,1,1
6995,2323,81206315,4.250,-5.688,6.329,6.375,0.040,1.842,-0.123,99957.34,36.12,-70.293,-76.523,-19.5674,0.0900,0.2300,9.8100,0.0000,0.0000,-0.0625,3.7500,-37.3750,16.6875,0.0400,-0.0100,0.0200,0.0400,0.2500,9.8000,1,1
7007,2327,81326768,4.250,-5.688,6.362,6.375,0.018,0.134,1.505,99977.57,36.14,-70.923,-77.151,-19.5366,0.0800,0.2300,9.7800,0.0625,0.1875,-0.0625,4.8750,-37.0000,17.0625,0.0400,-0.0200,0.0000,0.0400,0.2500,9.8000,1,1
7019,2331,81445940,4.375,-5.750,6.371,6.375,0.046,0.342,-0.021,99975.11,36.15,-71.589,-77.759,-19.2478,-1.2800,-3.0600,9.8800,-2.3125,4.6875,2.5625,4.1875,-37.0000,17.5000,-0.7100,-2.7600,0.1000,0.0600,0.2500,9.8000,1,1
7031,2335,81566916,4.562,-5.812,7.509,8.688,0.130,0.684,0.325,99971.05,36.14,-72.245,-78.369,-19.6836,0.0300,-0.4200,9.9900,0.1250,-2.3125,-17.3750,5.6875,-35.8750,16.6875,0.2800,-0.7500,0.2100,0.1000,0.2700,9.8000,1,1
7043,2339,81687102,24.562,-7.812,9.027,10.062,0.456,1.533,1.883,99960.98,36.13,-72.841,-79.003,-18.8283,2.6000,0.0000,9.6200,16.5625,-286.3750,-2.7500,6.7500,-37.3750,17.5000,-0.4900,-0.6000,-0.7600,3.4500,0.5700,9.1600,1,1
7055,2343,81807075,54.500,-7.000,40.906,100.938,0.569,0.666,1.696,99971.27,36.13,-73.371,-79.140,-15.2871,5.7200,1.5400,6.1400,-51.2500,-172.0000,2.6875,15.6875,-36.2500,9.6875,4.4100,0.9800,1.1300,7.5600,0.3000,6.2200,1,1
7064,2346,81907069,68.875,-7.812,79.514,104.812,0.710,0.409,1.972,99974.31,36.12,-73.751,-78.993,-11.7151,7.4900,-0.4700,3.7100,-6.1250,-208.8750,-4.8125,18.6875,-36.2500,2.3750,-1.2000,-0.4900,-0.8500,8.8700,0.2600,4.1500,1,1
7076,2350,82027566,92.438,-5.750,95.764,101.562,0.652,1.039,-2.277,99966.85,36.12,-74.203,-78.546,-11.0360,9.8000,0.2200,-0.6800,1.6250,0.8750,-0.3750,16.7500,-37.0000,-7.3750,-0.1300,-0.0100,-0.0200,9.8000,0.2600,0.0100,1,1
7088,2354,82146431,92.312,-5.812,100.130,101.938,0.073,-0.637,-3.046,99986.70,36.12,-74.616,-78.080,-10.9758,9.3000,0.2400,0.2800,-0.3750,0.6250,0.0000,16.3750,-37.0000,-6.5625,0.2700,0.0500,-0.3200,9.8000,0.2700,0.0600,1,1
7100,2358,82267713,92.312,-5.812,101.427,101.938,0.462,0.306,2.287,99975.53,36.13,-74.822,-77.574,-11.0817,9.7400,0.2900,-0.0100,0.0000,0.4375,0.0000,16.0625,-38.5000,-7.0000,-0.0600,0.0000,-0.0800,9.8000,0.2700,0.0600,1,1
7112,2362,82387985,92.312,-5.812,101.772,101.875,0.401,-0.801,0.774,99988.66,36.14,-74.953,-77.069,-11.0803,9.7300,0.2900,0.0000,-0.0625,0.3750,0.0000,16.3750,-37.3750,-5.7500,-0.0300,0.0000,-0.0800,9.8000,0.2700,0.0600,1,1
7124,2366,82507435,92.312,-5.812,101.932,102.000,-0.019,-0.206,-5.299,99981.61,36.14,-75.184,-76.599,-11.0687,9.7100,0.2800,-0.0100,0.0000,0.5625,-0.0625,16.7500,-37.3750,-6.5625,-0.0600,0.0100,-0.0700,9.8000,0.2700,0.0600,1,1
7136,2370,82627822,92.312,-5.812,101.945,101.938,0.002,-0.727,1.313,99987.77,36.14,-75.218,-76.098,-11.1012,9.7400,0.3100,0.0000,0.0000,0.3750,0.0625,15.6875,-36.5625,-6.5625,-0.0400,0.0000,-0.0600,9.8000,0.2700,0.0600,1,1
7148,2374,82747167,92.312,-5.812,101.940,101.938,0.090,0.929,-0.790,99968.15,36.12,-75.250,-75.613,-11.0714,9.7400,0.2800,0.0000,-0.0625,0.3750,0.0000,17.1875,-36.5625,-7.5000,-0.0700,0.0000,-0.0800,9.8000,0.2700,0.0600,1,1
7157,2377,82846609,92.312,-5.812,102.041,102.188,0.092,0.788,1.789,99969.82,36.11,-75.208,-75.201,-10.8871,8.7200,0.2300,0.7800,-0.6250,5.0000,-0.1875,17.1875,-36.2500,-8.2500,-1.0700,-0.0400,0.7100,9.8000,0.2700,0.0700,1,1
7169,2381,82968466,92.250,-5.812,102.146,102.188,0.376,1.128,2.124,99965.79,36.11,-75.029,-74.689,-11.0554,9.4900,0.3000,0.2700,-1.8125,-0.5000,-0.0625,17.5625,-37.7500,-7.0000,0.0000,0.4800,0.1700,9.8000,0.2700,0.0800,1,1
7179,2384,83068447,92.250,-5.812,102.608,103.062,0.449,0.292,1.584,99975.70,36.13,-74.842,-74.269,-11.0908,9.8300,0.2900,-0.0100,0.0000,-0.7500,-0.0625,16.3750,-37.3750,-8.2500,0.1200,0.0200,-0.2400,9.8000,0.2700,0.0900,1,1
7190,2388,83178603,92.250,-5.812,102.920,103.062,0.268,0.209,-1.776,99976.69,36.11,-74.693,-73.825,-11.0631,9.6700,0.2800,0.0300,0.0625,0.1250,0.0000,16.7500,-37.0000,-7.3750,-0.1000,0.0100,-0.0400,9.8000,0.2700,0.0900,1,1
7202,2392,83297435,92.250,-5.812,103.022,103.062,0.222,-0.904,0.417,99989.88,36.15,-74.445,-73.339,-11.0731,9.6700,0.2900,0.0300,0.1250,-0.1250,0.0625,16.7500,-37.7500,-6.5625,-0.0300,-0.0400,-0.0800,9.8000,0.2700,0.0900,1,1
7214,2396,83418702,81.812,-11.812,102.767,102.812,0.009,-0.468,-1.923,99984.70,36.13,-74.261,-72.907,-12.1435,11.0700,0.0600,0.0900,-16.3750,292.0000,-1.5625,16.7500,-37.3750,-7.0000,1.3600,0.5200,-0.0800,9.5800,0.2700,2.0400,1,1
7226,2400,83538891,42.375,-4.750,71.977,12.625,0.020,-0.200,0.262,99981.53,36.13,-74.022,-72.749,-16.6531,5.0100,0.7300,8.0700,18.2500,165.8125,0.0625,17.5625,-35.8750,2.3750,-2.0700,0.6900,0.8000,6.0900,0.0700,7.6800,1,1
7238,2404,83659202,24.250,-5.188,28.616,10.938,0.017,-0.473,-0.476,99984.77,36.13,-73.808,-72.842,-16.1048,6.7900,0.0000,6.2600,14.6875,488.0000,-2.4375,15.2500,-37.0000,10.1875,2.3300,0.1600,-3.5100,3.3900,0.1500,9.1900,1,1
7250,2408,83779350,-25.375,-6.188,16.132,11.625,0.254,0.590,1.494,99972.16,36.13,-73.613,-73.093,-17.0663,-0.2600,1.8700,9.0000,13.1250,225.1250,-15.1250,2.3750,-35.8750,19.0625,0.7100,1.6400,0.9300,-4.8100,0.2900,8.5300,1,1
7259,2411,83879346,-48.375,-7.750,-17.509,281.750,0.645,1.078,3.074,99966.39,36.12,-73.391,-73.035,-12.9034,-7.3700,-0.1200,6.0800,18.1875,172.6875,3.8125,-4.2500,-35.8750,18.6875,0.3000,-0.5800,0.0300,-7.7600,0.3700,5.9700,1,1
7270,2415,83989128,-53.125,-10.562,-59.153,281.688,0.572,0.424,0.434,99974.14,36.14,-73.210,-72.636,-8.3265,-11.7900,5.0300,7.8600,4.3750,-3.7500,13.8750,-8.7500,-35.5000,17.8750,1.7500,-2.2800,0.6200,-8.2300,0.5800,5.2800,1,1
7282,2419,84109462,-64.188,-8.625,-72.487,282.188,0.395,0.920,-2.857,99968.26,36.13,-73.061,-72.199,-9.0746,-10.3500,0.3700,2.6700,0.5000,97.5625,0.1875,-11.0000,-35.8750,17.0625,0.5300,0.0200,0.2500,-9.1000,0.2800,3.6300,1,1
7294,2423,84229585,-73.812,-12.000,-76.508,281.375,0.274,0.157,-0.615,99977.30,36.14,-72.823,-71.512,-8.1845,-6.8300,0.5200,1.0500,-23.5000,118.7500,4.6875,-12.5000,-35.8750,13.3750,2.2600,-0.5800,-1.5900,-9.5800,0.2700,2.0400,1,1
7306,2427,84348546,-84.000,-6.000,-78.840,280.250,0.483,1.478,1.248,99961.65,36.13,-72.519,-70.813,-8.1373,-9.6100,0.6900,0.1700,27.6875,-3.8750,-0.9375,-14.6875,-37.0000,9.6875,0.1900,0.4400,-0.8900,-9.8000,0.3000,0.1500,1,1
7318,2431,84469701,-83.938,-5.938,-78.372,281.938,0.762,0.508,3.204,99973.14,36.11,-72.048,-70.049,-8.7057,-9.5400,0.1600,0.4200,0.0625,0.5000,0.1875,-15.0625,-36.2500,10.1875,0.2700,-0.1400,0.3200,-9.8000,0.2900,0.1700,1,1
7330,2435,84589872,-83.938,-5.875,-78.090,282.062,0.789,0.766,-0.517,99970.08,36.12,-71.634,-69.334,-8.7212,-9.5300,0.1600,0.4600,0.0000,-0.0625,0.0625,-15.5000,-37.0000,9.3750,0.2600,-0.1200,0.2600,-9.8000,0.2800,0.2000,1,1
7342,2439,84709826,-83.875,-5.812,-77.872,282.312,0.619,0.345,-1.440,99975.07,36.13,-71.213,-68.640,-8.7409,-9.5300,0.1500,0.4500,-0.0625,0.3125,0.0625,-15.5000,-37.0000,10.5000,0.2400,-0.1100,0.2100,-9.8000,0.2700,0.2200,1,1
7354,2443,84839569,-83.875,-5.750,-77.687,282.438,0.370,0.327,-2.541,99975.29,36.11,-70.782,-67.912,-8.7558,-9.5300,0.1400,0.4000,-0.1250,0.1250,0.0000,-16.1875,-37.0000,9.6875,0.2700,-0.0800,0.1900,-9.7900,0.2600,0.2500,1,1
7366,2447,84959935,-83.812,-5.688,-77.574,282.562,0.436,0.029,0.325,99978.81,36.12,-70.283,-67.235,-8.7392,-9.5400,0.1700,0.4300,0.0000,0.0000,0.0000,-16.1875,-37.0000,11.0000,0.2300,-0.0700,0.1800,-9.7900,0.2500,0.2600,1,1
7378,2451,85079950,-83.688,-5.625,-77.465,282.438,0.514,0.072,0.404,99978.31,36.13,-69.769,-66.581,-7.9622,-8.3000,1.0300,-0.1100,-7.7500,-3.1875,-0.3750,-15.7500,-37.0000,10.5000,-0.0500,4.4100,0.0500,-9.7900,0.2300,0.3100,1,1
7390,2455,85199332,-83.375,-5.562,-78.471,280.625,1.014,1.722,3.168,99958.76,36.13,-69.165,-65.890,-9.2618,-10.2000,-0.3700,0.6800,-18.5000,-14.3125,-0.5000,-15.7500,-37.7500,8.8750,0.0500,-1.0100,0.2200,-9.7900,0.2200,0.4200,1,1
7402,2459,85320592,-72.062,-9.688,-79.099,281.125,1.134,2.000,0.575,99955.46,36.14,-68.555,-65.216,-8.8808,-9.2300,0.0400,2.1900,16.5000,-124.4375,-3.3125,-14.6875,-36.5625,10.1875,0.4300,-0.1000,0.1100,-9.5100,0.2200,2.3400,1,1
7414,2463,85440780,-60.250,-7.312,-78.163,282.500,0.542,-1.140,-2.152,99992.67,36.13,-68.012,-64.730,-10.7593,-8.3700,0.1600,4.3800,1.1250,-79.8125,-0.6250,-11.7500,-36.2500,13.3750,0.5800,-0.0600,0.4100,-8.8300,0.2200,4.2400,1,1
7426,2467,85560169,-52.438,-6.562,-77.843,281.812,0.750,1.940,-1.574,99956.17,36.12,-67.546,-64.452,-11.9553,-8.1400,0.3200,5.5000,-15.9375,-68.8750,9.3125,-9.5000,-36.2500,15.0000,0.3000,-0.0400,0.2400,-8.1700,0.2200,5.4100,1,1
7438,2471,85680702,-46.438,-6.250,-78.321,281.938,0.580,-0.181,0.115,99981.30,36.13,-67.019,-64.324,-12.5961,-7.5400,0.5800,5.8800,2.7500,-53.3750,-2.1875,-8.7500,-35.8750,16.6875,-0.0900,0.1300,-0.1500,-7.5600,0.2200,6.2300,1,1
7450,2475,85800907,-30.625,-5.812,-41.064,13.312,0.720,1.500,-0.612,99961.38,36.12,-66.609,-64.383,-14.1851,-5.2300,0.8900,6.2600,25.1250,-346.2500,-32.5000,-7.5625,-36.5625,17.0625,0.5000,1.0600,-1.8400,-5.5700,0.2200,8.0600,1,1
7460,2478,85900397,2.000,-5.438,-4.606,15.562,0.853,0.453,3.005,99973.79,36.09,-66.204,-64.373,-12.6242,-1.4200,-0.6500,2.9900,-58.8125,160.6250,0.9375,-1.0000,-37.0000,19.0625,-6.1200,1.0300,-4.0000,-0.3400,0.2000,9.7900,1,1
7472,2482,86020944,4.750,-5.562,9.488,14.812,0.605,1.091,-3.320,99966.23,36.13,-65.976,-65.074,-19.5529,0.0800,0.2200,9.8000,0.0625,-0.0625,0.0000,7.8750,-35.1875,17.0625,-0.0900,-0.0100,0.0200,0.1200,0.2300,9.8000,1,1
7484,2486,86141157,4.688,-5.562,13.309,14.812,0.826,1.662,1.534,99959.46,36.11,-65.750,-65.805,-19.5622,0.0500,0.2400,9.8100,-0.0625,0.0625,0.0000,8.6875,-34.3750,17.0625,-0.0700,0.0000,0.0100,0.1200,0.2300,9.8000,1,1
7496,2490,86261068,4.688,-5.562,14.388,14.812,0.643,0.879,-1.588,99968.75,36.13,-65.681,-66.547,-19.5812,0.0500,0.2300,9.8300,0.0000,0.0000,0.0000,9.0625,-36.5625,18.2500,-0.0800,-0.0200,0.0000,0.1200,0.2300,9.8000,1,1
7508,2494,86381585,4.688,-5.562,14.693,14.812,0.602,0.885,-1.370,99968.68,36.11,-65.708,-67.292,-19.5584,0.0200,0.2300,9.8100,0.2500,-0.6875,0.6250,9.0625,-35.8750,17.5000,-0.0700,0.0100,0.0100,0.1200,0.2300,9.8000,1,1
7520,2498,86500217,4.688,-5.562,14.702,14.625,0.507,0.453,0.278,99973.79,36.12,-65.812,-68.026,-19.5732,0.0700,0.2300,9.8200,0.0625,0.1250,-0.0625,8.2500,-36.5625,17.5000,0.0400,0.0400,0.0400,0.1200,0.2300,9.8000,1,1
7532,2502,86621683,4.688,-5.562,14.546,14.375,0.922,0.840,3.534,99969.20,36.12,-65.885,-68.751,-19.5748,0.0700,0.2500,9.8200,0.0000,-0.0625,0.1250,8.2500,-36.2500,16.2500,-0.0500,0.0100,0.0000,0.1100,0.2300,9.8000,1,1
7544,2506,86741883,4.812,-5.312,14.236,13.875,0.806,0.915,-1.497,99968.31,36.12,-66.130,-69.492,-19.7884,0.0800,0.3900,10.0200,-16.3125,1.1875,6.3750,8.6875,-36.2500,17.5000,-0.6900,-0.3600,0.0000,0.1300,0.1800,9.8000,1,1
7554,2509,86842019,5.062,-5.062,13.895,13.688,0.675,1.315,-1.626,99963.58,36.11,-66.410,-70.104,-19.5949,0.0000,0.1700,9.8500,0.1875,0.7500,0.0625,9.0625,-35.8750,17.0625,-0.0400,0.0100,0.0100,0.1900,0.1400,9.8000,1,1
7566,2513,86961831,5.000,-5.000,13.714,13.625,0.571,0.158,-0.120,99977.28,36.11,-66.725,-70.821,-19.6312,0.1400,0.2000,9.8700,-0.9375,-0.5625,-1.0625,8.2500,-35.8750,17.8750,0.0300,0.0500,0.1000,0.1700,0.1300,9.8000,1,1
7578,2517,87081940,5.250,-4.438,13.761,14.062,0.696,2.529,-1.862,99949.20,36.12,-67.160,-71.552,-19.7920,0.6200,0.2100,9.9900,-11.0625,-0.6250,-11.7500,9.0625,-35.8750,17.8750,0.3200,0.1300,0.1700,0.2200,0.0400,9.8000,1,1
7590,2521,87201427,5.312,1.062,13.479,12.688,0.614,0.121,2.004,99977.72,36.13,-67.507,-72.290,-19.1626,0.2000,-0.9500,9.4900,-89.0000,-3.6875,25.3750,9.0625,-37.0000,17.0625,0.0600,-0.3100,-0.5200,0.2200,-1.0600,9.7400,1,1
7602,2525,87322466,5.438,10.875,11.812,10.938,0.390,-0.333,-1.683,99983.11,36.11,-67.997,-72.912,-19.1954,-1.7600,-2.9000,9.5400,-78.8125,-1.3750,-3.0625,6.3750,-39.2500,9.3750,0.0000,-0.1200,-0.1000,0.2400,-2.5600,9.4600,1,1
7614,2529,87442753,5.500,24.562,10.912,9.812,0.672,1.775,1.398,99958.12,36.13,-68.460,-73.394,-15.0480,0.2300,-5.9700,6.4700,-123.6875,-15.6250,25.3750,7.1875,-39.5625,2.0000,0.1900,-0.9800,-2.2700,0.2500,-4.7200,8.5800,1,1
7626,2533,87562189,5.375,38.375,10.122,9.812,0.540,0.506,0.227,99973.16,36.13,-68.890,-73.649,-15.0634,0.1300,-5.6500,7.3700,-122.0625,-10.3750,3.8750,5.6875,-39.2500,-11.5000,0.3200,0.0300,-0.8800,0.2300,-6.6300,7.2100,1,1
7638,2537,87682702,5.250,54.062,129.524,181.750,0.595,1.518,-0.340,99961.16,36.13,-69.328,-73.620,-12.3036,0.1700,-7.7500,5.2200,-153.1250,-84.2500,46.0625,5.2500,-36.2500,-18.0625,-0.6200,-0.3300,-0.9400,0.2100,-8.3400,5.1400,1,1
7650,2541,87801385,5.125,66.625,163.679,174.875,0.409,-0.321,0.147,99982.97,36.12,-69.655,-73.301,-8.7770,1.9500,-9.3200,2.7600,-98.8125,-85.7500,22.1250,0.8750,-33.6875,-28.6875,-0.0400,0.1800,-1.0700,0.2000,-9.3100,3.0600,1,1
7659,2544,87901264,4.188,74.688,168.672,171.312,0.456,0.291,-0.085,99975.71,36.13,-69.891,-72.883,-9.7243,0.3100,-9.3900,1.5100,-75.1875,-30.0000,20.1875,-2.7500,-27.0000,-32.3750,0.2700,0.2200,-0.3600,0.0100,-9.6400,1.7600,1,1
7671,2548,88022832,5.250,80.875,172.210,176.688,0.402,-0.400,-0.556,99983.90,36.11,-70.068,-72.378,-12.8451,-3.0100,-9.1300,1.2600,-33.6250,78.9375,-6.5000,-4.6875,-22.1875,-38.5000,-2.0500,0.4100,0.1700,0.2100,-9.7600,0.8200,1,1
7683,2552,88143137,5.250,82.938,175.738,177.312,0.414,0.658,-0.234,99971.36,36.13,-70.211,-71.852,-9.4912,0.2500,-9.3600,0.3100,1.0000,-0.1875,-0.5000,-1.0000,-19.1875,-38.6875,-0.0700,0.3900,-0.1300,0.2100,-9.7900,0.4700,1,1
7695,2556,88262939,5.250,83.000,176.868,177.312,0.566,0.112,2.249,99977.83,36.13,-70.186,-71.280,-9.5950,0.1600,-9.3100,0.4200,0.5000,0.2500,-0.0625,-1.3750,-19.5625,-38.2500,-0.1700,0.4400,-0.0700,0.2100,-9.7900,0.4600,1,1
7707,2560,88383447,5.188,83.250,177.223,177.375,0.257,0.514,-3.034,99973.06,36.10,-70.242,-70.740,-9.6342,0.1100,-9.3600,0.3100,-1.5625,0.2500,-0.1875,-0.5625,-19.5625,-39.0625,-0.0500,0.4400,-0.0800,0.2000,-9.7900,0.4200,1,1
7719,2564,88502154,5.125,83.188,177.359,177.438,0.192,0.014,0.322,99978.99,36.12,-70.169,-70.193,-9.6174,0.1300,-9.3600,0.3300,0.5625,0.0000,-0.1875,-1.0000,-18.8750,-37.8750,-0.0900,0.4100,-0.1000,0.1900,-9.7900,0.4200,1,1
7731,2568,88623567,5.125,83.062,177.452,177.750,0.279,0.735,-0.097,99970.45,36.12,-70.051,-69.629,-8.8596,0.8700,-9.2900,0.1400,1.8750,26.5000,-1.5000,-0.5625,-19.8750,-38.2500,1.5100,0.5400,-0.5300,0.1900,-9.7900,0.4500,1,1
7743,2572,88743890,5.312,82.375,178.841,179.312,0.493,1.052,0.867,99966.70,36.14,-69.835,-69.087,-8.9604,0.8000,-9.1800,0.4500,11.0625,13.0625,-9.0000,0.0625,-19.1875,-38.6875,0.3200,0.6800,0.1400,0.2200,-9.7800,0.5700,1,1
7752,2575,88843492,5.688,81.750,178.968,178.500,0.470,1.551,0.398,99960.77,36.10,-69.675,-68.636,-9.4489,0.2300,-9.6500,0.0500,18.6875,-15.3125,3.4375,1.5625,-20.6875,-38.6875,-0.0900,0.1100,-0.5900,0.2900,-9.7700,0.6800,1,1
7764,2579,88963822,6.688,77.125,179.252,180.250,0.618,1.350,1.046,99963.16,36.12,-69.369,-68.059,-9.7767,-0.0200,-9.5800,0.9000,51.3125,27.6250,-16.4375,0.5000,-21.7500,-37.0625,-0.6100,-0.3000,-1.0100,0.4600,-9.6800,1.4600,1,1
7776,2583,89083877,6.438,58.438,-177.841,189.875,0.458,-0.122,-1.202,99980.60,36.11,-69.056,-67.521,-12.0000,-0.6500,-7.1600,3.9600,292.0625,202.0000,-13.6250,3.6875,-25.8750,-33.5000,-2.1800,2.5400,-0.2600,0.4100,-8.7000,4.4800,1,1
7788,2587,89203451,4.312,31.375,102.288,23.812,0.738,1.353,0.787,99963.13,36.13,-68.735,-67.498,-17.4619,-0.1500,-3.5800,9.1700,163.3125,-4.8750,21.4375,11.7500,-35.1875,-18.3750,-0.6700,1.2400,0.9000,0.0500,-5.5000,8.1100,1,1
7800,2591,89324439,4.688,9.688,44.417,20.125,0.444,0.504,-2.417,99973.19,36.13,-68.535,-67.959,-21.3376,-3.5300,-2.4100,11.3300,194.2500,-19.8750,46.4375,13.2500,-37.7500,-1.1875,2.7400,1.3800,1.8600,0.1200,-2.3700,9.5100,1,1
7812,2595,89444773,4.625,-5.375,24.543,14.750,0.488,0.880,0.376,99968.73,36.13,-68.404,-68.635,-18.7620,-0.0500,-0.6300,9.0800,142.6875,11.0625,46.3125,12.1875,-38.0000,10.1875,3.4000,-0.6900,0.3200,0.1100,0.2000,9.8000,1,1
7824,2599,89564187,4.375,-6.000,15.280,10.188,0.504,-0.422,1.553,99984.16,36.12,-68.302,-69.290,-19.5495,0.0700,-0.1600,9.8300,1.2500,-0.6250,24.4375,6.5625,-36.7500,18.3750,-0.3300,-0.1800,0.2400,0.0600,0.3000,9.8000,1,1
7836,2603,89684703,4.250,-6.000,12.048,10.938,0.395,1.459,-2.649,99961.88,36.13,-68.428,-69.988,-19.5192,0.1300,0.2600,9.7600,0.7500,-0.5625,-0.5000,6.5625,-36.7500,18.7500,0.1100,-0.0100,-0.0100,0.0500,0.3000,9.8000,1,1
7848,2607,89803206,4.312,-6.000,11.251,10.938,0.552,1.080,2.007,99966.37,36.13,-68.487,-70.644,-19.5219,0.0800,0.2400,9.7700,0.2500,-0.0625,0.0000,7.3750,-36.5000,18.3750,0.0300,-0.0600,-0.0200,0.0500,0.3000,9.8000,1,1
7858,2610,89903463,4.125,-6.000,11.211,11.312,0.553,0.526,0.517,99972.92,36.10,-68.594,-71.197,-19.4885,-0.1800,0.2700,9.7600,-0.6250,-0.9375,-0.3125,7.0000,-36.7500,19.1875,-0.2000,-0.0200,-0.0300,0.0300,0.2900,9.8000,1,1
7870,2614,90024939,4.250,-6.000,11.343,11.312,0.468,0.449,-0.003,99973.84,36.11,-68.823,-71.873,-19.5938,0.0800,0.4000,9.8300,3.6250,-2.8125,5.8750,7.3750,-35.6875,17.5625,-0.0400,-0.0500,-0.0100,0.0500,0.3000,9.8000,1,1
7882,2618,90145136,4.250,-5.938,11.244,11.250,0.568,0.924,0.882,99968.21,36.10,-69.075,-72.532,-19.5441,0.0800,0.2500,9.7900,-2.0000,0.8750,-1.5000,7.0000,-36.7500,18.3750,-0.0400,-0.0500,0.0100,0.0400,0.2900,9.8000,1,1
7894,2622,90265069,4.312,-6.000,11.203,11.125,0.529,0.337,0.291,99975.16,36.12,-69.368,-73.182,-19.5157,0.0200,0.2400,9.7700,-0.2500,0.2500,-1.7500,7.3750,-37.5625,17.5625,0.0300,-0.0100,-0.0100,0.0500,0.3000,9.8000,1,1
7906,2626,90385584,4.312,-6.000,11.147,11.125,0.503,-0.342,0.200,99983.22,36.13,-69.695,-73.824,-19.5107,0.0600,0.2500,9.7600,-0.0625,0.1250,0.0000,7.3750,-37.1875,18.0000,0.0300,-0.0700,0.0000,0.0500,0.3000,9.8000,1,1
7918,2630,90504238,4.312,-6.000,11.131,11.125,0.385,-0.676,-0.218,99987.17,36.13,-70.085,-74.457,-19.5503,0.0600,0.2500,9.8000,0.0000,-0.0625,0.0000,7.7500,-37.1875,18.7500,0.0200,-0.0300,-0.0100,0.0500,0.3000,9.8000,1,1
7930,2634,90625694,4.312,-6.000,11.178,11.375,0.487,0.758,-0.406,99970.18,36.13,-70.528,-75.104,-20.1600,4.5800,-0.1700,9.9700,0.4375,0.9375,-14.8750,8.0625,-36.5000,18.7500,2.5800,0.4200,0.1800,0.0500,0.3000,9.8000,1,1
7942,2638,90745891,4.062,-5.938,12.180,12.688,0.481,0.364,0.176,99974.84,36.13,-70.955,-75.720,-19.5706,0.1100,0.2800,9.8100,-0.1875,0.6875,0.1875,9.5625,-36.7500,18.0000,0.0000,-0.0500,0.0100,0.0100,0.2900,9.8000,1,1
7952,2641,90846015,4.125,-5.938,12.442,12.312,0.554,1.799,-0.890,99957.84,36.09,-71.366,-76.233,-19.9329,-0.1300,0.1500,10.2100,11.0625,4.8125,17.3125,8.8750,-36.5000,18.3750,-1.0800,-1.2000,-0.1700,0.0200,0.2900,9.8000,1,1
7964,2645,90965825,4.375,-5.875,8.686,5.312,0.553,1.403,-0.288,99962.54,36.12,-71.822,-76.830,-19.6425,-0.1400,0.9300,9.8600,-1.2500,0.6875,22.0625,5.8750,-37.1875,18.3750,0.0700,0.1100,-0.1700,0.0600,0.2700,9.8000,1,1
7976,2649,91086331,2.938,-5.938,18.013,46.625,0.326,-0.139,-0.966,99980.80,36.12,-72.313,-77.426,-20.1468,3.6000,2.8200,9.8900,9.8125,3.1250,-937.7500,4.7500,-37.5625,18.3750,4.7300,2.2100,-0.0800,-0.1800,0.2900,9.8000,1,1
7988,2653,91205991,2.062,-4.562,76.564,113.062,0.401,-0.236,1.843,99981.96,36.13,-72.788,-77.995,-19.6115,1.9700,0.1400,9.6800,3.1875,-8.6875,-119.5625,34.3750,-10.0625,18.7500,2.1500,0.4200,0.0600,-0.3300,0.0600,9.8000,1,1
8000,2657,91326465,2.500,-5.562,93.706,81.625,0.753,1.543,1.221,99960.88,36.13,-73.262,-78.563,-19.6150,-1.0200,0.3100,9.9500,-0.6250,-1.6250,753.9375,35.1875,11.3750,18.0000,-0.4900,-2.5200,-0.2600,-0.2500,0.2200,9.8000,1,1
8012,2661,91446753,3.875,-6.188,56.070,28.688,0.572,0.428,-1.588,99974.09,36.14,-73.766,-79.105,-19.3954,0.6600,-0.6600,9.6400,-4.5000,14.8125,266.3125,29.0000,-22.5625,17.7500,-0.7300,-1.3200,0.2800,-0.0200,0.3300,9.8000,1,1
8024,2665,91566677,4.000,-5.938,27.688,10.688,0.529,-0.070,0.971,99979.99,36.13,-74.254,-79.630,-18.8565,-1.2100,0.1000,9.2400,-1.0000,1.6875,173.7500,12.6875,-34.7500,18.1875,-0.3500,0.8500,-0.1000,0.0000,0.2900,9.8000,1,1
8036,2669,91686704,4.438,-5.750,8.720,356.562,0.427,1.194,-2.730,99965.02,36.12,-74.839,-80.179,-19.3129,-0.4900,0.2900,9.6100,1.6250,1.4375,92.5625,3.0625,-36.5625,18.1875,-0.7000,0.3800,0.0300,0.0800,0.2600,9.8000,1,1
8048,2673,91806010,4.375,-5.812,0.264,359.625,0.210,0.673,-2.044,99971.18,36.14,-75.403,-80.692,-19.3535,-0.6700,-0.8800,9.7600,0.0000,-0.1875,-105.4375,-1.3750,-37.0000,18.1875,-0.0700,-0.3800,0.0000,0.0600,0.2700,9.8000,1,1
8058,2676,91907167,3.438,-6.062,11.983,35.500,0.204,-0.044,0.519,99979.69,36.10,-75.829,-81.113,-19.6577,-0.1600,2.0200,9.8200,5.0000,-1.1875,-626.5000,1.5625,-37.3750,17.7500,0.7900,1.8200,0.2300,-0.1000,0.3200,9.8000,1,1
8070,2680,92027347,2.062,-4.938,63.843,104.000,-0.041,-0.268,-2.427,99982.34,36.12,-76.427,-81.639,-19.5626,-1.7800,-1.3200,10.0000,3.1875,-5.9375,-312.2500,37.1875,-7.7500,18.1875,-0.5300,0.2400,-0.1200,-0.3300,0.1100,9.8000,1,1
8082,2684,92147581,1.938,-4.375,102.341,120.750,0.031,-0.458,0.573,99984.59,36.12,-76.952,-82.126,-19.6550,0.8300,1.1600,9.7800,-1.1875,1.3750,-26.8750,34.5625,14.1875,19.0000,0.4400,-1.3500,0.0000,-0.3500,0.0200,9.8000,1,1
8094,2688,92267466,1.812,-4.250,115.958,120.688,0.429,2.119,1.434,99954.05,36.12,-77.466,-82.596,-19.5894,0.1200,0.1800,9.8000,0.1250,-0.3125,46.5625,31.5625,18.5625,18.5625,0.6400,0.1800,-0.0900,-0.3800,0.0000,9.7900,1,1
8106,2692,92387589,2.250,-5.250,110.332,92.688,0.490,0.083,3.021,99978.18,36.13,-77.872,-83.038,-19.6503,-0.7300,0.7600,9.9300,0.1250,-2.3125,604.1250,33.7500,15.5625,18.5625,0.1000,0.4100,-0.1200,-0.2900,0.1700,9.8000,1,1
8118,2696,92507122,3.688,-6.125,65.295,28.188,0.516,0.766,-1.329,99970.08,36.13,-78.377,-83.474,-19.4400,-0.3200,0.3600,9.7200,-3.9375,9.3750,411.8125,35.6875,-11.7500,18.1875,1.7800,2.4200,0.3000,-0.0500,0.3200,9.8000,1,1
8130,2700,92627704,4.062,-6.062,30.519,13.875,0.218,-0.101,-0.771,99980.35,36.12,-78.897,-83.910,-19.6331,-0.5400,0.4800,9.9300,0.8750,-1.6875,14.6875,10.7500,-35.5625,17.0000,-0.1000,-0.1500,-0.0700,0.0100,0.3100,9.8000,1,1
8142,2704,92747897,4.375,-6.125,18.101,13.375,0.399,1.017,0.533,99967.10,36.12,-79.377,-84.326,-19.5052,-0.1100,0.1900,9.7800,2.2500,-7.4375,-11.3125,10.0625,-35.8750,17.3750,0.1000,-0.0500,0.0200,0.0600,0.3200,9.8000,1,1
8154,2708,92877423,4.312,-6.125,15.387,15.188,0.528,0.614,1.361,99971.88,36.10,-79.827,-84.750,-19.4407,-0.9600,-0.1300,9.8300,-0.2500,1.7500,-22.4375,10.7500,-36.5625,17.7500,-1.3800,-0.5600,0.0400,0.0600,0.3200,9.8000,1,1
8166,2712,92998506,2.062,-5.438,38.276,77.375,0.525,-0.096,1.322,99980.30,36.12,-80.248,-85.146,-20.0330,3.0800,0.4400,9.9700,3.5000,10.7500,-784.7500,16.7500,-33.6875,17.7500,1.7800,-1.4800,-0.2100,-0.3300,0.2100,9.7900,1,1
8178,2716,93118465,1.812,-4.312,88.315,118.625,0.435,0.935,-2.396,99968.09,36.11,-80.753,-85.542,-19.6162,0.0800,0.2000,9.8300,-4.6875,9.8750,-174.1875,36.7500,11.5625,18.5625,-0.2700,0.2900,0.0100,-0.3800,0.0100,9.7900,1,1
8190,2720,93238467,2.062,-4.188,115.032,128.938,0.364,0.094,0.640,99978.05,36.11,-81.181,-85.915,-19.5618,0.1900,0.3800,9.7600,-0.0625,0.6250,-84.3750,30.5000,20.0625,18.5625,0.4500,0.3700,-0.0400,-0.3300,-0.0100,9.8000,1,1
8202,2724,93357586,2.250,-4.250,127.670,133.875,0.444,1.172,-0.406,99965.27,36.12,-81.631,-86.281,-19.5780,-0.0300,0.4600,9.7900,-0.4375,1.7500,-34.6875,28.2500,23.3750,18.5625,0.0900,0.2900,0.0000,-0.3000,0.0000,9.8000,1,1
8214,2728,93478558,2.312,-4.312,134.330,137.875,0.021,0.101,-3.008,99977.97,36.13,-82.143,-86.654,-19.5663,-0.1000,0.3200,9.7900,1.0000,-1.6875,0.0000,26.7500,26.6875,18.5625,0.1800,0.3400,0.0000,-0.2800,0.0100,9.8000,1,1
8226,2732,93598901,2.625,-4.562,137.056,138.562,0.198,0.167,1.898,99977.17,36.13,-82.548,-86.994,-19.5526,-0.0700,0.2800,9.7800,0.5625,-0.7500,-15.1250,25.6875,26.6875,19.3750,0.4000,0.3500,-0.0100,-0.2400,0.0500,9.8000,1,1
8238,2736,93718298,2.688,-4.625,138.805,140.312,0.348,1.039,0.902,99966.84,36.13,-82.955,-87.326,-19.5678,0.1800,0.4100,9.7700,1.2500,-1.6875,-26.4375,24.8750,26.6875,18.5625,0.3000,0.2800,-0.0200,-0.2200,0.0700,9.8000,1,1
8250,2740,93838810,2.812,-4.750,139.814,140.125,0.299,-0.448,1.005,99984.47,36.13,-83.319,-87.644,-19.5566,-0.0100,0.3300,9.7800,0.0000,0.0000,0.1250,23.7500,27.5000,18.5625,0.2300,0.2700,-0.0200,-0.2100,0.0900,9.8000,1,1
8260,2743,93938954,2.875,-4.875,139.964,140.000,0.163,-0.683,-0.877,99987.25,36.11,-83.680,-87.913,-19.5443,-0.0200,0.3400,9.7700,0.0625,0.4375,0.2500,24.8750,28.5625,18.1875,0.1500,0.2000,-0.0200,-0.1900,0.1100,9.8000,1,1
8272,2747,94058228,3.000,-5.000,139.096,138.062,0.097,-0.112,-0.612,99980.48,36.13,-84.110,-88.226,-19.5674,-0.0600,0.3200,9.8000,-0.1250,-0.2500,5.8750,24.8750,27.5000,19.0000,0.1300,0.1900,-0.0100,-0.1700,0.1300,9.8000,1,1
8284,2751,94179465,3.062,-5.125,138.089,137.625,0.513,1.412,1.971,99962.43,36.13,-84.445,-88.516,-19.5702,-0.0100,0.3300,9.8000,-0.0625,0.3750,0.0625,24.1875,27.0625,19.3750,0.1200,0.1700,-0.0100,-0.1600,0.1500,9.8000,1,1
8294,2754,94279510,3.125,-5.188,137.685,137.250,0.350,0.335,0.819,99975.19,36.11,-84.747,-88.756,-19.5692,0.1700,0.4000,9.7800,-0.2500,0.2500,12.2500,25.2500,26.3750,18.1875,0.4200,0.2300,-0.0700,-0.1500,0.1600,9.8000,1,1
8305,2758,94389584,3.375,-5.312,133.386,124.688,0.707,1.472,2.038,99961.72,36.12,-85.011,-89.001,-19.5508,0.1300,-0.3200,9.8100,-0.8125,0.5625,242.9375,26.3750,26.3750,19.0000,0.7000,-1.0600,-0.0400,-0.1000,0.1900,9.8000,1,1
8317,2762,94509013,4.375,-5.375,102.102,72.125,0.831,1.690,1.052,99959.13,36.14,-85.295,-89.259,-19.4499,-2.2300,0.1900,9.9100,-0.6250,0.0000,439.6875,34.8750,13.7500,19.0000,-1.6100,0.5200,-0.0100,0.0700,0.1900,9.8000,1,1
8329,2766,94629714,4.438,-4.562,57.356,25.750,0.506,-0.537,-1.038,99985.52,36.13,-85.604,-89.520,-20.0623,2.0800,0.5500,10.1100,-3.3125,3.5000,188.8125,26.0625,-26.5625,19.0000,0.0500,0.2400,-0.0400,0.0700,0.0600,9.8000,1,1
8341,2770,94750417,4.438,-4.438,29.769,16.062,0.383,-0.354,-1.112,99983.36,36.14,-85.956,-89.787,-19.5880,0.0300,0.3600,9.8100,-0.8750,0.1250,90.0000,14.1875,-34.0625,18.1875,-0.3900,0.5200,0.1700,0.0800,0.0300,9.8000,1,1
8351,2773,94850653,4.500,-4.438,19.989,14.562,0.204,0.932,-3.852,99968.12,36.14,-86.326,-90.016,-19.5452,0.0600,0.1700,9.7800,0.3750,-1.0000,9.0000,12.6875,-35.1875,17.3750,-0.0600,0.2500,0.0000,0.0900,0.0300,9.8000,1,1
8363,2777,94970348,4.562,-4.375,14.961,11.938,0.018,-0.877,0.060,99989.55,36.13,-86.650,-90.259,-19.4525,-0.1400,0.0700,9.7100,0.4375,-0.5625,29.0625,9.7500,-35.8750,18.5625,0.0500,0.2400,-0.0200,0.0900,0.0300,9.8000,1,1
8375,2781,95090466,4.500,-4.500,12.570,11.500,0.022,-0.343,-0.312,99983.23,36.13,-86.998,-90.502,-19.5408,0.0600,0.2500,9.7700,0.2500,-0.5625,-0.0625,9.7500,-37.0000,18.5625,-0.0400,0.1900,-0.0100,0.0900,0.0400,9.8000,1,1
8387,2785,95209997,4.312,-4.938,18.730,38.188,0.125,0.156,0.401,99977.31,36.13,-87.309,-90.736,-19.6562,1.6400,1.0900,9.6900,3.3125,1.2500,-586.9375,10.0625,-37.0000,17.7500,3.4900,2.7400,0.1200,0.0500,0.1200,9.8000,1,1
8399,2789,95330566,3.188,-5.125,70.698,108.625,0.089,0.018,-0.164,99978.95,36.12,-87.622,-90.949,-19.6137,0.5000,0.4800,9.7900,2.1250,-3.6875,-160.4375,37.5625,0.0625,18.5625,0.6500,-0.5600,-0.1000,-0.1400,0.1600,9.8000,1,1
8411,2793,95450892,3.312,-5.188,102.741,117.625,0.022,0.801,-1.885,99969.67,36.13,-87.969,-91.175,-19.4670,-0.4600,0.1400,9.7500,2.1875,-4.6875,-20.5000,34.8750,14.8750,18.1875,0.1200,0.1900,0.0000,-0.1200,0.1600,9.8000,1,1
8423,2797,95570305,3.375,-5.312,114.530,119.375,0.019,-1.453,2.344,99996.38,36.14,-88.181,-91.370,-19.5658,0.0000,0.3100,9.8000,-0.2500,0.5000,-0.0625,32.3750,18.1875,17.7500,0.0900,0.1400,0.0000,-0.1000,0.1800,9.8000,1,1
8435,2801,95690821,3.438,-5.375,118.006,119.375,0.283,1.189,-0.095,99965.07,36.14,-88.484,-91.577,-19.5160,0.0000,0.3300,9.7500,0.1875,-0.1875,-0.1250,32.0000,18.1875,18.5625,0.1100,0.1600,-0.0100,-0.1000,0.1900,9.8000,1,1
8447,2805,95810626,3.375,-5.375,119.196,120.250,0.741,1.644,3.618,99959.67,36.13,-88.626,-91.747,-19.5753,0.0000,0.3200,9.8100,-1.0625,2.5000,-25.0000,32.6875,19.0000,18.1875,0.0600,0.1000,-0.0300,-0.1000,0.1900,9.8000,1,1
8457,2808,95910239,3.375,-5.375,120.143,121.000,0.586,0.440,1.188,99973.94,36.11,-88.785,-91.893,-19.5124,-0.3100,0.2500,9.7800,-0.6875,1.4375,-30.5625,32.2500,19.3750,19.3750,-0.0300,0.1400,-0.0100,-0.1100,0.2000,9.8000,1,1
8469,2812,96030939,3.000,-5.250,125.706,131.812,0.397,1.397,-3.114,99962.61,36.13,-89.087,-92.086,-19.6582,-0.0300,0.1800,9.9000,2.4375,-0.8125,-64.3750,29.3750,21.8750,18.5625,0.4300,-0.1100,0.0000,-0.1700,0.1700,9.8000,1,1
8481,2816,96151625,2.875,-5.125,132.959,137.562,0.194,-0.257,-1.226,99982.21,36.13,-89.326,-92.264,-19.4827,-0.5500,0.1300,9.7700,0.7500,0.0000,-22.3750,26.7500,25.2500,20.1875,-0.0900,0.0600,-0.0200,-0.2000,0.1500,9.8000,1,1
8493,2820,96271177,3.250,-5.375,136.402,136.375,0.090,-0.281,-0.887,99982.49,36.14,-89.589,-92.443,-19.5333,0.2400,0.4000,9.7400,3.0625,-4.9375,50.0625,24.8750,26.6875,19.3750,0.4900,0.4500,0.0100,-0.1300,0.1900,9.8000,1,1
8505,2824,96391702,4.062,-5.500,122.091,97.000,0.120,0.539,-0.341,99972.77,36.13,-89.847,-92.606,-19.1758,-1.0900,1.7100,9.4200,-1.7500,0.8125,657.1875,29.7500,21.5625,20.1875,-2.1800,-2.6700,0.2000,0.0100,0.2200,9.8000,1,1
8517,2828,96511130,4.562,-4.625,68.966,33.562,0.191,-0.478,1.428,99984.83,36.13,-90.018,-92.766,-19.4626,-1.6300,1.2600,9.7500,-2.0625,1.8750,211.6250,35.2500,-12.8750,18.1875,-0.1200,0.2800,0.0000,0.1000,0.0600,9.8000,1,1
8529,2832,96632212,4.625,-4.438,38.445,25.000,0.115,-0.125,-1.172,99980.64,36.14,-90.267,-92.928,-19.5247,-0.4000,0.2500,9.7900,-0.6250,0.7500,23.0000,17.0625,-32.5625,19.0000,-0.8800,-0.0600,-0.0400,0.1000,0.0400,9.8000,1,1
8541,2836,96752020,4.625,-4.438,28.016,23.250,0.346,1.538,1.309,99960.93,36.14,-90.468,-93.079,-19.3309,-0.3300,-0.2500,9.6300,-0.2500,0.3125,21.0625,17.8750,-33.6875,17.3750,-0.2100,0.4700,0.0500,0.1100,0.0300,9.8000,1,1
8550,2839,96841925,4.625,-4.500,24.833,22.750,0.487,1.735,1.073,99958.60,36.13,-90.598,-93.194,-19.5603,0.0600,0.2600,9.7900,0.3750,-0.5000,-0.1250,16.7500,-34.0625,17.7500,-0.2500,0.2200,-0.0300,0.1100,0.0400,9.8000,1,1
8562,2843,96972466,3.625,-5.250,46.135,88.625,0.280,-0.320,-0.277,99982.95,36.12,-90.758,-93.343,-19.3219,0.9600,-3.8500,9.7300,11.5625,-6.2500,-904.6875,29.7500,-23.6875,18.1875,-1.2700,-4.2400,-0.1100,-0.0600,0.1800,9.8000,1,1
8574,2847,97092447,3.438,-5.375,94.150,117.562,0.174,-0.468,-0.538,99984.70,36.13,-90.957,-93.466,-19.5752,-0.6400,1.1600,9.8200,-1.3125,2.0625,-94.0000,33.7500,16.0000,18.1875,0.0000,0.4900,-0.0100,-0.1000,0.2000,9.8000,1,1
8586,2851,97211660,3.438,-5.438,113.470,121.562,0.164,0.288,-0.808,99975.75,36.12,-91.164,-93.605,-19.5612,0.1900,0.4700,9.7700,0.1250,-0.7500,-10.1875,30.8750,19.0000,18.5625,0.1000,0.1400,-0.0100,-0.1000,0.2000,9.8000,1,1
8598,2855,97332703,3.375,-5.438,119.641,122.375,0.143,0.325,0.323,99975.30,36.12,-91.350,-93.736,-19.5743,0.0000,0.3200,9.8100,-0.6250,1.0000,-6.7500,31.2500,19.6875,19.3750,0.0300,0.1300,-0.0400,-0.1000,0.2000,9.8000,1,1
8610,2859,97452872,3.500,-5.500,121.942,122.062,-0.107,0.066,-2.605,99978.38,36.13,-91.594,-93.875,-19.6862,0.7700,0.8100,9.8200,-0.0625,-1.0000,87.5000,31.5625,20.0625,19.0000,0.2600,0.0600,-0.0500,-0.0900,0.2100,9.8000,1,1
8622,2863,97573230,5.000,-4.938,91.256,45.688,0.021,-1.240,2.871,99993.85,36.13,-91.701,-93.983,-19.6228,-3.6600,0.6600,10.1500,-0.3125,3.4375,668.1875,37.1875,-4.0000,17.7500,-2.7400,0.3100,0.0100,0.1700,0.1200,9.8000,1,1
8634,2867,97693348,4.750,-4.375,46.225,23.688,-0.050,-1.024,-0.712,99991.29,36.12,-91.895,-94.105,-19.6031,1.4300,0.1100,9.7400,-1.5625,1.6250,76.0000,19.0000,-31.7500,18.5625,1.1300,-0.3500,-0.0200,0.1200,0.0300,9.8000,1,1
8646,2871,97813326,4.750,-4.312,27.929,20.312,-0.035,0.231,-0.741,99976.43,36.13,-92.108,-94.229,-19.5690,0.0400,0.2500,9.8000,0.1250,-0.5625,0.0625,14.1875,-34.7500,17.7500,-0.0900,0.2500,0.0000,0.1200,0.0100,9.8000,1,1
8656,2874,97913288,4.500,-4.688,26.912,38.875,0.091,0.040,1.219,99978.69,36.10,-92.205,-94.316,-19.8630,1.8100,1.8100,9.8300,2.7500,9.9375,-682.0000,13.7500,-34.7500,19.3750,1.0600,1.3600,-0.0300,0.0900,0.0800,9.8000,1,1
8668,2878,98033466,3.312,-5.375,78.197,115.875,0.442,1.327,2.086,99963.43,36.13,-92.305,-94.414,-19.2657,0.5200,-1.9400,9.5800,0.8125,0.1875,-114.5000,37.8750,0.7500,18.1875,0.3000,-1.4500,0.0100,-0.1200,0.1900,9.8000,1,1
8680,2882,98153754,3.375,-5.438,108.950,123.250,0.309,0.964,-1.321,99967.73,36.12,-92.451,-94.522,-19.5466,-0.0400,0.2500,9.7900,0.9375,-1.1250,-35.3125,33.3750,16.6875,17.7500,0.1900,0.1200,0.0000,-0.1100,0.2000,9.8000,1,1
8692,2886,98273188,3.375,-5.438,120.231,124.938,0.585,0.392,2.998,99974.52,36.12,-92.478,-94.600,-19.5619,-0.0200,0.3100,9.8000,0.1250,-0.1875,0.0000,31.2500,20.0625,19.0000,0.1000,0.1200,-0.0100,-0.1100,0.2100,9.8000,1,1
8704,2890,98393707,3.438,-5.500,123.720,125.125,0.555,-0.118,0.738,99980.56,36.12,-92.558,-94.686,-19.5359,-0.0700,0.3100,9.7800,0.5000,-1.1250,0.0000,31.5625,19.6875,19.7500,-0.1900,0.0100,0.0300,-0.1000,0.2200,9.8000,1,1
8716,2894,98513144,3.688,-5.625,123.228,119.875,0.488,-0.700,-0.226,99987.46,36.13,-92.650,-94.773,-19.5570,-0.0600,0.9900,9.7600,-0.3125,-0.5625,94.9375,31.2500,20.3750,18.1875,-0.7500,1.4000,0.0300,-0.0500,0.2300,9.8000,1,1
8728,2898,98633814,4.938,-5.000,97.016,53.812,0.338,-0.173,-2.115,99981.20,36.13,-92.811,-94.863,-19.6122,-0.3500,-0.6900,9.9700,0.0000,0.0000,1036.1875,36.3750,8.1875,18.5625,-0.2500,0.0900,-0.2700,0.1600,0.1300,9.8000,1,1
8740,2902,98754020,4.812,-4.312,49.214,22.438,0.523,1.242,0.093,99964.44,36.11,-92.924,-94.952,-19.6520,0.9300,0.4500,9.8000,0.3750,-3.6875,159.8125,21.8750,-30.2500,19.0000,-0.4200,0.0000,-0.2100,0.1400,0.0100,9.8000,1,1
8749,2905,98843907,4.812,-4.125,28.892,11.875,0.163,-0.887,0.278,99989.67,36.13,-93.036,-95.030,-19.6423,1.6200,0.5800,9.7300,-1.0000,0.6250,121.4375,14.5625,-34.7500,20.1875,1.1500,1.2900,0.0000,0.1400,-0.0200,9.8000,1,1
8759,2908,98954129,4.500,-3.875,11.580,357.125,0.228,1.569,-3.122,99960.56,36.08,-93.218,-95.124,-19.8164,0.2700,0.8300,9.9800,-2.1875,5.5625,127.2500,6.0000,-37.3750,18.5625,-0.2700,0.5900,0.0000,0.0900,-0.0700,9.8000,1,1
8771,2912,99074448,4.438,-3.875,0.258,356.062,0.126,-1.550,1.691,99997.53,36.11,-93.252,-95.182,-19.6916,-0.1400,1.1200,9.8600,-0.0625,0.1250,-26.8125,-1.7500,-38.0625,18.5625,-0.2400,1.1300,0.1000,0.0700,-0.0700,9.8000,1,1
8783,2916,99194590,4.375,-3.875,-1.510,358.750,0.246,0.621,-1.044,99971.80,36.10,-93.410,-95.274,-19.5874,-0.2600,-0.5300,9.8900,0.3125,0.0625,-45.0625,-0.6875,-37.7500,19.3750,-0.4300,-0.4700,-0.4100,0.0700,-0.0600,9.8000,1,1
8795,2920,99313383,4.500,-4.062,3.138,8.000,0.251,0.402,-0.197,99974.40,36.12,-93.510,-95.338,-19.7543,1.8700,0.6400,9.8200,1.3750,-0.9375,-95.8750,2.6875,-37.7500,18.1875,0.7700,-0.2000,-0.1300,0.0900,-0.0300,9.8000,1,1
8807,2924,99434684,4.750,-4.438,15.346,30.000,0.401,0.287,1.715,99975.77,36.12,-93.560,-95.401,-19.2085,0.3200,-0.9900,9.5200,3.0000,-4.7500,-369.1875,11.8750,-37.3750,18.1875,1.5400,-1.0600,-0.1300,0.1300,0.0300,9.8000,1,1
8819,2928,99554927,4.062,-5.312,57.445,100.062,0.208,-0.505,-0.305,99985.14,36.12,-93.661,-95.475,-19.5772,-1.0000,-1.5400,10.0400,2.8125,-3.6875,-620.1875,32.6875,-24.3750,18.1875,0.5400,-0.3000,-0.3900,0.0100,0.1800,9.8000,1,1
8831,2932,99675212,3.062,-5.062,110.811,141.500,0.432,0.731,0.240,99970.49,36.11,-93.739,-95.528,-19.6995,1.4600,-0.6300,9.8500,0.2500,1.2500,-159.5000,29.3750,31.1875,19.3750,1.6800,-1.0300,-0.2400,-0.1600,0.1400,9.8000,1,1
8843,2936,99795319,3.188,-5.062,136.476,143.688,0.463,-0.022,1.013,99979.42,36.11,-93.777,-95.581,-19.5623,0.0700,0.2300,9.7900,1.6250,-6.3125,189.3750,20.5000,37.5000,19.0000,0.6000,0.2600,0.0100,-0.1400,0.1400,9.8000,1,1
8852,2939,99894939,4.188,-5.250,124.528,91.500,0.437,1.000,-1.185,99967.31,36.09,-93.879,-95.622,-19.4273,-2.1700,-1.2700,9.9800,-2.3125,3.5000,802.9375,27.5000,33.0625,17.3750,0.1300,-1.6100,-0.1400,0.0400,0.1700,9.8000,1,1
8864,2943,100015182,4.625,-4.250,65.618,23.375,0.156,-0.556,-0.087,99985.74,36.11,-93.959,-95.665,-19.6248,2.7900,0.2400,9.6500,-2.4375,-0.3125,419.0000,40.0625,-13.5625,18.1875,2.6900,0.1900,-0.0100,0.1100,0.0000,9.8000,1,1
8876,2947,100135449,4.500,-4.000,25.693,7.062,0.064,-0.396,-1.238,99983.84,36.10,-94.079,-95.749,-19.7405,1.6400,1.3200,9.7700,-0.1875,1.3750,5.6250,10.3750,-39.5625,17.7500,0.4900,1.0100,-0.0200,0.0900,-0.0400,9.8000,1,1
8888,2951,100255756,4.562,-4.250,17.430,25.750,0.379,1.897,0.612,99956.68,36.10,-94.168,-95.814,-19.6543,0.6100,0.2600,9.8400,4.0625,-0.6875,-487.0000,6.7500,-39.5625,18.1875,1.0700,1.2000,-0.0700,0.1000,0.0100,9.8000,1,1
8900,2955,100375585,4.188,-5.250,55.332,87.938,0.337,1.015,0.125,99967.13,36.10,-94.223,-95.876,-19.6025,0.4200,1.8400,9.6900,5.3125,-12.0000,-222.9375,37.8750,-12.5625,20.5625,2.2700,0.1400,-0.1100,0.0400,0.1700,9.8000,1,1
8912,2959,100495689,4.250,-5.250,81.227,91.625,0.317,0.639,-0.540,99971.58,36.09,-94.290,-95.928,-19.5272,-0.5200,-0.0500,9.8400,0.0000,-2.4375,13.7500,40.0625,0.0625,21.0000,-0.7100,0.4800,0.1300,0.0400,0.1700,9.8000,1,1
8924,2963,100615175,4.188,-4.938,81.155,73.312,0.209,-1.377,1.577,99995.48,36.09,-94.310,-95.965,-19.4846,-0.0900,-0.0300,9.7500,-1.1875,-0.3125,189.6875,39.3750,0.0625,19.3750,-0.0700,0.2500,0.1700,0.0300,0.1200,9.8000,1,1
8936,2967,100735834,4.250,-4.875,71.201,66.062,0.230,0.771,-2.173,99970.02,36.11,-94.454,-96.034,-19.5490,-0.0200,0.4900,9.7700,-0.2500,-0.0625,3.3125,37.8750,-15.0625,18.1875,-0.0400,0.0900,-0.0300,0.0500,0.1100,9.8000,1,1
8949,2971,100865818,4.250,-4.938,67.368,66.062,0.279,1.328,-0.845,99963.41,36.09,-94.541,-96.091,-19.5425,-0.0200,0.2800,9.7800,-0.1250,-0.0625,0.1250,37.1875,-15.8750,18.1875,-0.0500,0.1400,0.0000,0.0500,0.1100,9.8000,1,1
8961,2975,100985941,4.250,-4.938,66.443,66.125,0.197,0.919,-1.288,99968.27,36.09,-94.622,-96.141,-19.5213,-0.0100,0.2500,9.7600,-0.0625,0.0625,0.0625,37.1875,-15.0625,19.0000,-0.0500,0.1400,-0.0200,0.0400,0.1200,9.8000,1,1
8973,2979,101106102,4.250,-5.000,66.236,66.188,0.353,1.290,0.560,99963.87,36.10,-94.663,-96.182,-19.5319,0.0000,0.2600,9.7700,-0.0625,0.1875,-0.1875,37.5625,-15.0625,19.3750,-0.0400,0.1300,0.0000,0.0400,0.1300,9.8000,1,1
8985,2983,101226058,4.188,-5.062,66.208,66.250,0.294,0.303,-0.355,99975.57,36.10,-94.703,-96.222,-19.5712,0.0000,0.2600,9.8100,0.0000,-0.0625,0.1875,36.7500,-14.7500,20.1875,-0.0300,0.1200,0.0000,0.0400,0.1400,9.8000,1,1
8997,2987,101346545,4.188,-5.062,66.238,66.250,0.173,-0.341,-0.523,99983.20,36.11,-94.768,-96.265,-19.5123,0.0000,0.2700,9.7500,0.0000,0.0625,0.0000,36.3750,-15.8750,22.2500,-0.0300,0.1000,-0.0300,0.0300,0.1400,9.8000,1,1
9009,2991,101465918,4.188,-5.125,66.247,66.250,0.252,0.836,-1.058,99969.26,36.11,-94.857,-96.312,-19.5497,0.0000,0.2500,9.7900,0.0000,0.1250,0.0000,33.7500,-16.5625,21.3750,-0.0400,0.1000,-0.0300,0.0300,0.1500,9.8000,1,1
9021,2995,101586704,4.188,-5.125,66.249,66.250,0.303,1.705,-0.803,99958.96,36.09,-94.932,-96.355,-19.5305,0.0000,0.2600,9.7700,0.0000,0.0000,0.0000,33.0625,-16.2500,22.5625,-0.0400,0.0900,-0.0300,0.0300,0.1500,9.8000,1,1
9033,2999,101706907,4.188,-5.188,66.250,66.250,0.134,-1.020,0.881,99991.25,36.10,-94.932,-96.382,-19.5380,0.0000,0.2400,9.7800,0.0000,0.0000,0.0625,32.6875,-16.2500,22.5625,-0.0300,0.0900,-0.0100,0.0300,0.1600,9.8000,1,1
9045,3003,101826808,4.188,-5.188,66.191,65.938,0.236,-0.252,0.734,99982.15,36.11,-94.983,-96.419,-19.5601,0.0000,0.2700,9.8000,0.0000,-0.0625,0.1875,33.7500,-17.0000,22.5625,-0.0300,0.1000,-0.0100,0.0300,0.1600,9.8000,1,1
9055,3006,101926822,4.188,-5.188,65.805,65.312,0.144,0.746,-1.339,99970.32,36.08,-95.081,-96.460,-19.5496,0.0100,0.2500,9.7900,0.0000,0.1250,-0.0625,33.7500,-17.0000,22.2500,-0.0400,0.0800,-0.0100,0.0300,0.1600,9.8000,1,1
9067,3010,102046951,4.188,-5.188,65.341,65.062,0.424,0.692,2.502,99970.95,36.09,-95.057,-96.479,-19.5189,0.0000,0.2500,9.7600,0.0625,0.1250,-0.1250,33.0625,-16.2500,21.0000,-0.0200,0.0800,-0.0100,0.0300,0.1600,9.8000,1,1
9079,3014,102166282,4.188,-5.188,64.876,64.562,0.124,-0.800,-1.685,99988.63,36.11,-95.121,-96.517,-19.5487,0.0000,0.2500,9.7900,0.0625,0.0000,0.0000,33.3750,-17.3750,21.7500,-0.0300,0.0700,0.0000,0.0300,0.1600,9.8000,1,1
9091,3018,102287466,4.188,-5.188,64.276,63.875,0.242,0.090,0.100,99978.10,36.11,-95.170,-96.552,-19.5586,0.0000,0.2500,9.8000,0.0625,-0.1250,0.1875,32.0000,-16.2500,22.5625,-0.0300,0.0800,-0.0200,0.0300,0.1600,9.8000,1,1
9101,3021,102387447,4.188,-5.188,63.926,63.625,0.469,1.429,1.227,99962.23,36.11,-95.178,-96.572,-19.5677,-0.0100,0.2500,9.8100,0.0000,-0.1875,-0.0625,32.2500,-17.0000,22.5625,-0.0100,0.0800,-0.0100,0.0300,0.1600,9.8000,1,1
9112,3025,102497567,4.188,-5.188,63.719,63.625,0.442,-0.365,2.046,99983.49,36.12,-95.147,-96.586,-19.5288,0.0000,0.2500,9.7700,0.1875,0.0000,0.0000,33.3750,-15.8750,23.0625,-0.0300,0.0700,-0.0300,0.0300,0.1600,9.8000,1,1
9124,3029,102616459,4.188,-5.188,63.570,63.500,0.060,-0.836,-2.334,99989.07,36.10,-95.251,-96.628,-19.5487,0.0000,0.2500,9.7900,0.0000,0.0000,-0.1875,32.6875,-16.2500,22.5625,-0.0400,0.0700,0.0000,0.0300,0.1600,9.8000,1,1
9136,3033,102737703,4.188,-5.188,63.430,63.375,0.244,0.495,0.918,99973.30,36.10,-95.299,-96.659,-19.5693,0.0000,0.2600,9.8100,-0.0625,-0.1250,0.0000,32.6875,-17.0000,22.5625,-0.0300,0.0900,-0.0200,0.0300,0.1600,9.8000,1,1
9148,3037,102857902,4.188,-5.188,63.391,63.375,0.007,0.307,-2.642,99975.52,36.11,-95.407,-96.700,-19.5388,0.0000,0.2500,9.7800,0.0000,-0.0625,-0.0625,33.3750,-17.7500,22.5625,-0.0500,0.0900,-0.0100,0.0300,0.1600,9.8000,1,1
9158,3040,102958020,4.188,-5.188,63.380,63.375,-0.148,0.429,-1.439,99974.07,36.10,-95.503,-96.736,-19.5487,0.0000,0.2500,9.7900,0.0000,0.1250,0.0625,33.3750,-17.0000,21.7500,-0.0100,0.0900,-0.0200,0.0300,0.1600,9.8000,1,1
9170,3044,103077434,4.188,-5.188,63.377,63.375,-0.066,-0.526,1.826,99985.40,36.11,-95.519,-96.759,-19.5373,0.0000,0.2300,9.7800,0.0000,0.1250,0.0000,32.2500,-17.0000,21.7500,-0.0200,0.1000,0.0000,0.0300,0.1600,9.8000,1,1
9182,3048,103197951,4.188,-5.188,63.375,63.375,-0.079,-0.859,0.693,99989.34,36.10,-95.566,-96.787,-19.5097,0.0000,0.2600,9.7500,0.0000,-0.0625,-0.0625,32.6875,-16.5625,22.5625,-0.0300,0.1100,0.0000,0.0300,0.1600,9.8000,1,1
9194,3052,103317866,4.188,-5.188,63.375,63.375,-0.053,0.391,-1.218,99974.52,36.10,-95.659,-96.823,-19.5397,0.0100,0.2500,9.7800,-0.0625,-0.0625,0.0000,32.2500,-16.2500,22.5625,-0.0300,0.0600,-0.0300,0.0300,0.1600,9.8000,1,1
9204,3055,103417920,4.188,-5.188,63.375,63.375,0.136,0.323,2.248,99975.33,36.11,-95.648,-96.834,-19.5388,0.0000,0.2500,9.7800,0.0625,0.1250,-0.1250,33.3750,-16.5625,21.7500,-0.0300,0.0900,-0.0100,0.0300,0.1600,9.8000,1,1
9215,3059,103528070,4.188,-5.188,63.375,63.375,0.149,1.080,-0.412,99966.35,36.11,-95.702,-96.859,-19.5388,0.0000,0.2500,9.7800,-0.0625,0.0625,0.0000,33.7500,-17.3750,23.3750,-0.0300,0.0800,-0.0300,0.0300,0.1600,9.8000,1,1
9227,3063,103648567,4.188,-5.188,63.375,63.375,0.234,-0.008,1.944,99979.26,36.11,-95.672,-96.869,-19.5198,0.0100,0.2500,9.7600,0.0000,0.1875,-0.0625,36.0625,-15.5000,22.5625,-0.0400,0.0800,-0.0100,0.0300,0.1600,9.8000,1,1
9239,3067,103768054,4.188,-5.188,63.375,63.375,0.181,-0.058,0.511,99979.84,36.12,-95.700,-96.890,-19.5386,-0.0100,0.2600,9.7800,-0.0625,0.0625,0.0625,36.7500,-15.5000,21.3750,-0.0500,0.0900,-0.0100,0.0300,0.1600,9.8000,1,1
9250,3071,103888284,4.188,-5.188,63.375,63.375,0.442,0.471,1.987,99973.58,36.12,-95.669,-96.899,-19.5678,0.0000,0.2400,9.8100,0.1250,0.0000,0.2500,38.5625,-14.0000,19.0000,-0.0400,0.1200,-0.0100,0.0300,0.1600,9.8000,1,1
9262,3075,104008984,4.188,-5.188,63.375,63.375,0.472,-0.401,1.001,99983.91,36.13,-95.633,-96.907,-19.5603,0.0100,0.2600,9.8000,-0.0625,0.0000,-0.0625,37.8750,-13.2500,20.5625,-0.0300,0.0700,0.0100,0.0300,0.1600,9.8000,1,1
9274,3079,104129230,4.188,-5.188,63.375,63.375,0.374,0.919,-2.273,99968.27,36.11,-95.709,-96.936,-19.5379,-0.0100,0.2500,9.7800,0.0625,0.1250,0.0000,37.1875,-14.0000,19.0000,-0.0300,0.0800,0.0000,0.0300,0.1600,9.8000,1,1
9286,3083,104248958,4.188,-5.188,63.867,64.500,0.466,0.813,0.931,99969.52,36.13,-95.694,-96.947,-19.5189,0.0000,0.2500,9.7600,-0.1875,0.0000,0.0625,37.5625,-14.0000,19.0000,-0.0200,0.1100,-0.0500,0.0300,0.1600,9.8000,1,1
9298,3087,104368433,4.188,-5.188,64.785,65.375,0.440,0.295,0.469,99975.66,36.11,-95.687,-96.958,-19.5583,-0.0200,0.2700,9.8000,0.0625,0.0625,0.0625,37.1875,-13.5625,18.5625,-0.0200,0.1100,-0.0100,0.0300,0.1600,9.8000,1,1
9310,3091,104489467,4.188,-5.188,65.813,66.625,0.037,0.448,-4.261,99973.85,36.13,-95.816,-96.998,-19.5594,0.0000,0.2600,9.8000,0.1250,-0.0625,0.0000,36.7500,-12.8750,18.5625,-0.0300,0.0800,0.0000,0.0300,0.1600,9.8000,1,1
9320,3094,104589459,4.188,-5.188,66.496,67.000,0.278,0.857,1.085,99969.01,36.12,-95.795,-97.005,-19.5379,-0.0100,0.2500,9.7800,0.0625,0.0625,0.0625,36.0625,-13.2500,18.5625,-0.0500,0.1000,-0.0100,0.0300,0.1600,9.8000,1,1
9331,3098,104699566,4.188,-5.188,67.018,67.375,0.223,-0.205,0.573,99981.59,36.12,-95.799,-97.016,-19.5097,0.0000,0.2600,9.7500,0.0000,-0.1875,-0.0625,37.1875,-13.5625,18.5625,-0.0500,0.0700,-0.0300,0.0300,0.1600,9.8000,1,1
9343,3102,104818461,4.188,-5.188,67.524,67.875,0.060,0.310,-1.768,99975.48,36.11,-95.883,-97.045,-19.5693,0.0000,0.2600,9.8100,0.0000,0.0625,0.1250,37.8750,-12.8750,17.0000,-0.0300,0.0700,0.0000,0.0300,0.1600,9.8000,1,1
9352,3105,104918310,4.188,-5.188,67.765,67.938,0.203,-0.015,0.989,99979.34,36.10,-95.860,-97.049,-19.5402,0.0000,0.2700,9.7800,0.0625,0.0000,-0.1875,38.2500,-14.0000,18.1875,-0.0600,0.0900,0.0000,0.0300,0.1600,9.8000,1,1
9364,3109,105039685,4.188,-5.188,68.243,68.562,0.031,-0.877,-0.242,99989.55,36.10,-95.897,-97.069,-19.5776,-0.0100,0.2500,9.8200,0.0625,0.0000,0.0625,37.8750,-14.0000,17.7500,-0.0300,0.0900,-0.0200,0.0300,0.1600,9.8000,1,1
9376,3113,105160009,4.188,-5.188,68.523,68.688,-0.147,-0.040,-2.561,99979.64,36.11,-96.012,-97.103,-19.5570,-0.0100,0.2400,9.8000,0.1250,0.0000,0.0000,37.8750,-13.2500,17.7500,-0.0400,0.0900,0.0200,0.0300,0.1600,9.8000,1,1
9388,3117,105279454,4.188,-5.188,68.647,68.750,0.044,0.946,1.019,99967.95,36.11,-96.045,-97.119,-19.5380,0.0000,0.2400,9.7800,0.0000,0.0625,-0.1250,37.5625,-13.2500,17.3750,-0.0400,0.0900,-0.0100,0.0300,0.1600,9.8000,1,1
9400,3121,105399953,4.188,-5.188,68.755,68.875,0.110,0.122,1.770,99977.71,36.10,-96.030,-97.126,-19.5165,-0.0100,0.2300,9.7600,0.0625,-0.1875,0.1875,37.1875,-12.5625,18.5625,-0.0100,0.0800,0.0000,0.0300,0.1600,9.8000,1,1
9412,3125,105519928,4.188,-5.188,68.867,68.938,0.178,0.190,0.186,99976.91,36.11,-96.041,-97.138,-19.5288,0.0000,0.2500,9.7700,0.0000,0.1250,-0.0625,36.7500,-12.8750,19.0000,-0.0400,0.0700,0.0000,0.0300,0.1600,9.8000,1,1
9422,3128,105619939,4.188,-5.188,68.913,68.938,0.090,-0.312,-0.266,99982.86,36.10,-96.067,-97.150,-19.5395,0.0000,0.2600,9.7800,0.0000,0.0000,-0.1250,37.5625,-12.5625,18.1875,-0.0200,0.1000,0.0000,0.0300,0.1600,9.8000,1,1
9433,3132,105730055,4.188,-5.188,68.930,68.938,0.205,1.496,-0.603,99961.43,36.12,-96.115,-97.168,-19.5487,0.0000,0.2500,9.7900,0.0000,-0.1250,0.0000,37.5625,-14.3750,18.5625,-0.0300,0.0800,0.0000,0.0300,0.1600,9.8000,1,1
9445,3136,105850571,4.188,-5.188,68.935,68.938,0.187,0.645,0.003,99971.51,36.11,-96.110,-97.175,-19.5196,0.0000,0.2600,9.7600,0.0000,0.0000,-0.0625,37.8750,-13.5625,19.0000,-0.0500,0.0800,0.0000,0.0300,0.1600,9.8000,1,1
9454,3139,105950685,4.188,-5.188,68.937,68.938,0.043,-0.225,0.198,99981.82,36.09,-96.126,-97.185,-19.5586,0.0000,0.2500,9.8000,0.0000,-0.1250,-0.0625,37.5625,-14.3750,17.7500,-0.0400,0.1000,0.0000,0.0300,0.1600,9.8000,1,1
9466,3143,106069824,4.188,-5.188,68.937,68.938,0.105,-1.060,1.486,99991.72,36.10,-96.105,-97.189,-19.5294,-0.0100,0.2700,9.7700,0.0625,0.0000,0.0625,37.8750,-12.5625,19.3750,-0.0500,0.1000,0.0000,0.0300,0.1600,9.8000,1,1
